[{"rt":1399.0199999825563,"stimulus":"\n      <p>You can elect whether to include your data in our research dataset.</p>\n    ","response":0,"question":"consent","trial_type":"html-button-response","trial_index":0,"time_elapsed":1401,"internal_node_id":"0.0-0.0","user_agent":"Mozilla/5.0 (Windows NT 10.0; Win64; x64) AppleWebKit/537.36 (KHTML, like Gecko) Chrome/88.0.4324.190 Safari/537.36","screen_width_px":1920,"screen_height_px":1080},{"rt":865.7050000037998,"stimulus":"\n      <p>This experiment uses your camera for eye tracking.</p>\n      <p>No video is saved from this experiment. The only data recorded are predictions about where you are looking.</p>\n      <p>Before we begin, there are a few things to do that can improve the accuracy of the eye tracking.</p>\n    ","response":0,"trial_type":"html-button-response","trial_index":1,"time_elapsed":2268,"internal_node_id":"0.0-1.0","user_agent":"Mozilla/5.0 (Windows NT 10.0; Win64; x64) AppleWebKit/537.36 (KHTML, like Gecko) Chrome/88.0.4324.190 Safari/537.36","screen_width_px":1920,"screen_height_px":1080},{"rt":1245.2100000227802,"stimulus":"\n      <p>If you wear glasses and can complete the task without them, please remove your glasses.</p>\n    ","response":0,"trial_type":"html-button-response","trial_index":2,"time_elapsed":3514,"internal_node_id":"0.0-2.0","user_agent":"Mozilla/5.0 (Windows NT 10.0; Win64; x64) AppleWebKit/537.36 (KHTML, like Gecko) Chrome/88.0.4324.190 Safari/537.36","screen_width_px":1920,"screen_height_px":1080},{"rt":2673.145000007935,"stimulus":"\n      <p>Please close additional browser tabs and apps running in the background.<br>The eye tracker works best when there are fewer things running at the same time.</p>\n    ","response":0,"trial_type":"html-button-response","trial_index":3,"time_elapsed":6188,"internal_node_id":"0.0-3.0","user_agent":"Mozilla/5.0 (Windows NT 10.0; Win64; x64) AppleWebKit/537.36 (KHTML, like Gecko) Chrome/88.0.4324.190 Safari/537.36","screen_width_px":1920,"screen_height_px":1080},{"rt":1049.4400000025053,"stimulus":"\n      <p>Try to avoid bright lights behind you.<br>The eye tracker works best if your face is well lit from the front.<br>If you can, adjust the lighting in your room.</p>\n    ","response":0,"trial_type":"html-button-response","trial_index":4,"time_elapsed":7238,"internal_node_id":"0.0-4.0","user_agent":"Mozilla/5.0 (Windows NT 10.0; Win64; x64) AppleWebKit/537.36 (KHTML, like Gecko) Chrome/88.0.4324.190 Safari/537.36","screen_width_px":1920,"screen_height_px":1080},{"rt":1253.1700000108685,"stimulus":"\n      <p>In order to participate you must allow the experiment to use your camera.</p>\n      <p>You will be prompted to do this on the next screen.</p>\n    ","response":0,"trial_type":"html-button-response","trial_index":5,"time_elapsed":8492,"internal_node_id":"0.0-5.0","user_agent":"Mozilla/5.0 (Windows NT 10.0; Win64; x64) AppleWebKit/537.36 (KHTML, like Gecko) Chrome/88.0.4324.190 Safari/537.36","screen_width_px":1920,"screen_height_px":1080},{"trial_type":"webgazer-init-camera","trial_index":6,"time_elapsed":30385,"internal_node_id":"0.0-6.0","user_agent":"Mozilla/5.0 (Windows NT 10.0; Win64; x64) AppleWebKit/537.36 (KHTML, like Gecko) Chrome/88.0.4324.190 Safari/537.36","screen_width_px":1920,"screen_height_px":1080},{"rt":712.2900000249501,"stimulus":"\n      <p>Now you'll complete a series of calibrations and validations.</p>\n      <p>The calibration will be reset after each round, so it is OK to move a little bit<br>in between the end of a validation and the start of the next calibration.</p>\n      <p>Please keep your head still during each round.</p>\n    ","response":0,"trial_type":"html-button-response","trial_index":7,"time_elapsed":31100,"internal_node_id":"0.0-7.0","user_agent":"Mozilla/5.0 (Windows NT 10.0; Win64; x64) AppleWebKit/537.36 (KHTML, like Gecko) Chrome/88.0.4324.190 Safari/537.36","screen_width_px":1920,"screen_height_px":1080},{"success":true,"trial_type":"fullscreen","trial_index":8,"time_elapsed":32858,"internal_node_id":"0.0-8.0","user_agent":"Mozilla/5.0 (Windows NT 10.0; Win64; x64) AppleWebKit/537.36 (KHTML, like Gecko) Chrome/88.0.4324.190 Safari/537.36","screen_width_px":1920,"screen_height_px":1080},{"rt":670.4650000028778,"stimulus":"\n      <p>During the calibration phase, please look at each dot and click on it.</p>\n      <p>During the validation phase, just look at each dot while it is on the screen.</p>\n    ","response":0,"trial_type":"html-button-response","trial_index":9,"time_elapsed":33530,"internal_node_id":"0.0-9.0","user_agent":"Mozilla/5.0 (Windows NT 10.0; Win64; x64) AppleWebKit/537.36 (KHTML, like Gecko) Chrome/88.0.4324.190 Safari/537.36","screen_width_px":1920,"screen_height_px":1080},{"rt":582.8150000015739,"stimulus":"\n      <p>Calibration phase next.</p>\n      <p>Click on the dots.</p>\n    ","response":0,"trial_type":"html-button-response","trial_index":10,"time_elapsed":34114,"internal_node_id":"0.0-10.0-0.0","user_agent":"Mozilla/5.0 (Windows NT 10.0; Win64; x64) AppleWebKit/537.36 (KHTML, like Gecko) Chrome/88.0.4324.190 Safari/537.36","screen_width_px":1920,"screen_height_px":1080},{"trial_type":"webgazer-calibrate","trial_index":11,"time_elapsed":60842,"internal_node_id":"0.0-10.0-1.0","user_agent":"Mozilla/5.0 (Windows NT 10.0; Win64; x64) AppleWebKit/537.36 (KHTML, like Gecko) Chrome/88.0.4324.190 Safari/537.36","screen_width_px":1920,"screen_height_px":1080},{"rt":1104.1200000036042,"stimulus":"\n      <p>Validation phase next.</p>\n      <p>Look at the dots.</p>\n    ","response":0,"trial_type":"html-button-response","trial_index":12,"time_elapsed":61947,"internal_node_id":"0.0-10.0-2.0","user_agent":"Mozilla/5.0 (Windows NT 10.0; Win64; x64) AppleWebKit/537.36 (KHTML, like Gecko) Chrome/88.0.4324.190 Safari/537.36","screen_width_px":1920,"screen_height_px":1080},{"raw_gaze":[[{"dx":5,"dy":-68,"t":1051},{"dx":55,"dy":-119,"t":1114},{"dx":81,"dy":-141,"t":1140},{"dx":104,"dy":-60,"t":1180},{"dx":77,"dy":-9,"t":1208},{"dx":111,"dy":-30,"t":1249},{"dx":109,"dy":-51,"t":1283},{"dx":173,"dy":-91,"t":1325},{"dx":181,"dy":-95,"t":1352},{"dx":119,"dy":-112,"t":1390},{"dx":43,"dy":-102,"t":1422},{"dx":73,"dy":-120,"t":1459},{"dx":45,"dy":-120,"t":1485},{"dx":-11,"dy":-142,"t":1525},{"dx":-26,"dy":-135,"t":1555},{"dx":22,"dy":-119,"t":1592},{"dx":7,"dy":-123,"t":1620},{"dx":51,"dy":-116,"t":1660},{"dx":50,"dy":-116,"t":1688},{"dx":35,"dy":-102,"t":1727},{"dx":-11,"dy":-98,"t":1758},{"dx":-19,"dy":-117,"t":1798},{"dx":-77,"dy":-131,"t":1825},{"dx":31,"dy":-89,"t":1867},{"dx":63,"dy":-60,"t":1899},{"dx":137,"dy":23,"t":1936},{"dx":156,"dy":51,"t":1965},{"dx":221,"dy":16,"t":2003},{"dx":203,"dy":23,"t":2031},{"dx":251,"dy":11,"t":2068},{"dx":187,"dy":-10,"t":2099},{"dx":167,"dy":-39,"t":2145},{"dx":124,"dy":-52,"t":2174},{"dx":84,"dy":-94,"t":2211},{"dx":61,"dy":-117,"t":2239},{"dx":76,"dy":-154,"t":2277},{"dx":33,"dy":-156,"t":2304},{"dx":72,"dy":-123,"t":2348},{"dx":55,"dy":-101,"t":2380},{"dx":181,"dy":-65,"t":2418},{"dx":250,"dy":-58,"t":2449},{"dx":248,"dy":-66,"t":2486},{"dx":204,"dy":-62,"t":2515},{"dx":334,"dy":-56,"t":2555},{"dx":390,"dy":-72,"t":2583},{"dx":317,"dy":-32,"t":2622},{"dx":233,"dy":-12,"t":2649},{"dx":233,"dy":-48,"t":2686},{"dx":178,"dy":-57,"t":2713},{"dx":214,"dy":-72,"t":2752},{"dx":256,"dy":-84,"t":2782},{"dx":331,"dy":-78,"t":2819},{"dx":352,"dy":-71,"t":2847},{"dx":358,"dy":-80,"t":2885},{"dx":365,"dy":-89,"t":2915},{"dx":364,"dy":-105,"t":2953},{"dx":371,"dy":-90,"t":2983},{"dx":312,"dy":-89,"t":3021},{"dx":300,"dy":-87,"t":3051},{"dx":327,"dy":-115,"t":3079}],[{"dx":173,"dy":6,"t":4068},{"dx":189,"dy":35,"t":4132},{"dx":226,"dy":45,"t":4161},{"dx":119,"dy":-5,"t":4201},{"dx":111,"dy":-55,"t":4229},{"dx":63,"dy":-63,"t":4267},{"dx":86,"dy":-100,"t":4295},{"dx":45,"dy":-126,"t":4332},{"dx":11,"dy":-148,"t":4359},{"dx":-30,"dy":-64,"t":4401},{"dx":-50,"dy":-35,"t":4433},{"dx":-16,"dy":16,"t":4474},{"dx":16,"dy":46,"t":4506},{"dx":46,"dy":-133,"t":4545},{"dx":65,"dy":-195,"t":4574},{"dx":114,"dy":-193,"t":4612},{"dx":118,"dy":-168,"t":4643},{"dx":112,"dy":-115,"t":4681},{"dx":105,"dy":-77,"t":4709},{"dx":113,"dy":-70,"t":4747},{"dx":107,"dy":-35,"t":4775},{"dx":77,"dy":-21,"t":4814},{"dx":55,"dy":-35,"t":4843},{"dx":87,"dy":-50,"t":4882},{"dx":102,"dy":-50,"t":4912},{"dx":185,"dy":-69,"t":4950},{"dx":225,"dy":-72,"t":4978},{"dx":225,"dy":-142,"t":5016},{"dx":220,"dy":-181,"t":5047},{"dx":173,"dy":-188,"t":5086},{"dx":144,"dy":-220,"t":5116},{"dx":153,"dy":-229,"t":5155},{"dx":135,"dy":-241,"t":5185},{"dx":152,"dy":-183,"t":5229},{"dx":126,"dy":-167,"t":5260},{"dx":116,"dy":-103,"t":5303},{"dx":112,"dy":-75,"t":5332},{"dx":72,"dy":-59,"t":5370},{"dx":54,"dy":-49,"t":5399},{"dx":119,"dy":-33,"t":5442},{"dx":152,"dy":-55,"t":5473},{"dx":155,"dy":-107,"t":5513},{"dx":149,"dy":-141,"t":5544},{"dx":156,"dy":-43,"t":5584},{"dx":175,"dy":36,"t":5615},{"dx":176,"dy":85,"t":5658},{"dx":180,"dy":93,"t":5696},{"dx":124,"dy":96,"t":5752},{"dx":97,"dy":93,"t":5782},{"dx":56,"dy":69,"t":5822},{"dx":29,"dy":58,"t":5849},{"dx":67,"dy":-4,"t":5890},{"dx":132,"dy":0,"t":5916},{"dx":130,"dy":-33,"t":5955},{"dx":127,"dy":-92,"t":5983},{"dx":157,"dy":-75,"t":6023},{"dx":173,"dy":-64,"t":6051},{"dx":105,"dy":-123,"t":6076}],[{"dx":-14,"dy":-53,"t":7083},{"dx":-20,"dy":-38,"t":7111},{"dx":-7,"dy":-59,"t":7148},{"dx":-52,"dy":-80,"t":7177},{"dx":-67,"dy":-129,"t":7214},{"dx":-56,"dy":-126,"t":7242},{"dx":-106,"dy":-106,"t":7280},{"dx":-154,"dy":-117,"t":7307},{"dx":-136,"dy":-125,"t":7345},{"dx":-110,"dy":-113,"t":7372},{"dx":-75,"dy":-109,"t":7411},{"dx":-87,"dy":-124,"t":7438},{"dx":-70,"dy":-48,"t":7475},{"dx":-39,"dy":12,"t":7502},{"dx":37,"dy":46,"t":7541},{"dx":65,"dy":63,"t":7570},{"dx":71,"dy":27,"t":7606},{"dx":56,"dy":8,"t":7634},{"dx":106,"dy":-1,"t":7673},{"dx":142,"dy":1,"t":7701},{"dx":184,"dy":-8,"t":7739},{"dx":194,"dy":-17,"t":7766},{"dx":189,"dy":-33,"t":7803},{"dx":173,"dy":-43,"t":7831},{"dx":122,"dy":-31,"t":7869},{"dx":91,"dy":-19,"t":7900},{"dx":14,"dy":-53,"t":7938},{"dx":-16,"dy":-53,"t":7970},{"dx":-67,"dy":-100,"t":8007},{"dx":-69,"dy":-114,"t":8037},{"dx":-15,"dy":-80,"t":8073},{"dx":14,"dy":-59,"t":8101},{"dx":41,"dy":-27,"t":8140},{"dx":26,"dy":-23,"t":8168},{"dx":-85,"dy":-87,"t":8206},{"dx":-123,"dy":-115,"t":8236},{"dx":-144,"dy":-173,"t":8279},{"dx":-140,"dy":-205,"t":8310},{"dx":-65,"dy":-89,"t":8350},{"dx":-32,"dy":-31,"t":8381},{"dx":-112,"dy":-98,"t":8426},{"dx":-155,"dy":-126,"t":8462},{"dx":-110,"dy":-129,"t":8503},{"dx":-73,"dy":-105,"t":8534},{"dx":-77,"dy":-168,"t":8574},{"dx":-87,"dy":-189,"t":8604},{"dx":-98,"dy":-216,"t":8643},{"dx":-100,"dy":-224,"t":8675},{"dx":-87,"dy":-140,"t":8715},{"dx":-76,"dy":-97,"t":8745},{"dx":-95,"dy":-127,"t":8786},{"dx":-108,"dy":-138,"t":8812},{"dx":-139,"dy":-127,"t":8849},{"dx":-110,"dy":-101,"t":8876},{"dx":-61,"dy":-92,"t":8915},{"dx":-37,"dy":-82,"t":8943},{"dx":24,"dy":-86,"t":8987},{"dx":53,"dy":-85,"t":9015},{"dx":90,"dy":11,"t":9054},{"dx":110,"dy":53,"t":9083},{"dx":99,"dy":90,"t":9107}],[{"dx":-214,"dy":-107,"t":10098},{"dx":-151,"dy":-118,"t":10160},{"dx":-118,"dy":-123,"t":10188},{"dx":-84,"dy":-101,"t":10227},{"dx":-88,"dy":-102,"t":10257},{"dx":-64,"dy":-134,"t":10295},{"dx":-62,"dy":-154,"t":10325},{"dx":-61,"dy":-152,"t":10361},{"dx":-29,"dy":-119,"t":10390},{"dx":-5,"dy":-115,"t":10430},{"dx":10,"dy":-111,"t":10462},{"dx":28,"dy":-141,"t":10499},{"dx":25,"dy":-167,"t":10526},{"dx":-18,"dy":-147,"t":10566},{"dx":-7,"dy":-121,"t":10598},{"dx":26,"dy":-101,"t":10641},{"dx":49,"dy":-69,"t":10670},{"dx":3,"dy":-52,"t":10707},{"dx":-29,"dy":-40,"t":10735},{"dx":-72,"dy":-28,"t":10774},{"dx":-100,"dy":-36,"t":10805},{"dx":-122,"dy":-42,"t":10848},{"dx":-132,"dy":-54,"t":10877},{"dx":-159,"dy":-80,"t":10915},{"dx":-164,"dy":-79,"t":10943},{"dx":-148,"dy":-108,"t":10984},{"dx":-131,"dy":-134,"t":11019},{"dx":-32,"dy":-117,"t":11059},{"dx":-13,"dy":-101,"t":11089},{"dx":49,"dy":-42,"t":11128},{"dx":87,"dy":4,"t":11157},{"dx":35,"dy":-17,"t":11199},{"dx":-7,"dy":-39,"t":11237},{"dx":113,"dy":-35,"t":11292},{"dx":166,"dy":-33,"t":11319},{"dx":113,"dy":-59,"t":11362},{"dx":75,"dy":-85,"t":11393},{"dx":-4,"dy":-71,"t":11431},{"dx":-20,"dy":-44,"t":11463},{"dx":-64,"dy":-47,"t":11502},{"dx":-66,"dy":-50,"t":11530},{"dx":-62,"dy":-74,"t":11569},{"dx":-67,"dy":-95,"t":11596},{"dx":-63,"dy":-106,"t":11632},{"dx":-48,"dy":-90,"t":11660},{"dx":-68,"dy":-131,"t":11698},{"dx":-59,"dy":-155,"t":11728},{"dx":-39,"dy":-163,"t":11765},{"dx":-6,"dy":-164,"t":11793},{"dx":58,"dy":-136,"t":11830},{"dx":32,"dy":-107,"t":11858},{"dx":70,"dy":-57,"t":11897},{"dx":55,"dy":-40,"t":11928},{"dx":6,"dy":-55,"t":11968},{"dx":5,"dy":-56,"t":11997},{"dx":3,"dy":-18,"t":12035},{"dx":-7,"dy":1,"t":12063},{"dx":13,"dy":8,"t":12102},{"dx":41,"dy":40,"t":12113}],[{"dx":212,"dy":-142,"t":13109},{"dx":164,"dy":-144,"t":13169},{"dx":161,"dy":-153,"t":13197},{"dx":167,"dy":-188,"t":13235},{"dx":159,"dy":-201,"t":13263},{"dx":120,"dy":-245,"t":13301},{"dx":87,"dy":-275,"t":13329},{"dx":115,"dy":-284,"t":13366},{"dx":99,"dy":-279,"t":13395},{"dx":109,"dy":-214,"t":13435},{"dx":113,"dy":-176,"t":13464},{"dx":110,"dy":-178,"t":13504},{"dx":117,"dy":-189,"t":13532},{"dx":130,"dy":-170,"t":13573},{"dx":126,"dy":-184,"t":13600},{"dx":125,"dy":-180,"t":13638},{"dx":144,"dy":-162,"t":13667},{"dx":113,"dy":-183,"t":13708},{"dx":81,"dy":-203,"t":13736},{"dx":1,"dy":-245,"t":13774},{"dx":-43,"dy":-259,"t":13805},{"dx":-135,"dy":-311,"t":13843},{"dx":-180,"dy":-346,"t":13872},{"dx":-123,"dy":-324,"t":13910},{"dx":-105,"dy":-295,"t":13938},{"dx":-16,"dy":-248,"t":13975},{"dx":6,"dy":-248,"t":14004},{"dx":30,"dy":-235,"t":14041},{"dx":33,"dy":-225,"t":14069},{"dx":118,"dy":-204,"t":14112},{"dx":188,"dy":-194,"t":14140},{"dx":198,"dy":-175,"t":14177},{"dx":153,"dy":-167,"t":14206},{"dx":159,"dy":-166,"t":14245},{"dx":184,"dy":-172,"t":14275},{"dx":216,"dy":-182,"t":14311},{"dx":225,"dy":-186,"t":14338},{"dx":155,"dy":-180,"t":14376},{"dx":130,"dy":-178,"t":14404},{"dx":131,"dy":-170,"t":14442},{"dx":140,"dy":-181,"t":14470},{"dx":102,"dy":-198,"t":14509},{"dx":83,"dy":-195,"t":14538},{"dx":145,"dy":-160,"t":14581},{"dx":190,"dy":-124,"t":14613},{"dx":241,"dy":-59,"t":14652},{"dx":251,"dy":-31,"t":14680},{"dx":225,"dy":0,"t":14720},{"dx":197,"dy":5,"t":14749},{"dx":193,"dy":-14,"t":14788},{"dx":211,"dy":-36,"t":14816},{"dx":121,"dy":-132,"t":14854},{"dx":60,"dy":-176,"t":14884},{"dx":30,"dy":-201,"t":14921},{"dx":31,"dy":-203,"t":14948},{"dx":55,"dy":-183,"t":14987},{"dx":4,"dy":-216,"t":15016},{"dx":-51,"dy":-250,"t":15054},{"dx":-65,"dy":-293,"t":15083},{"dx":45,"dy":-232,"t":15125},{"dx":84,"dy":-206,"t":15137}],[{"dx":53,"dy":26,"t":16159},{"dx":37,"dy":16,"t":16200},{"dx":18,"dy":-2,"t":16232},{"dx":39,"dy":-29,"t":16271},{"dx":63,"dy":-43,"t":16301},{"dx":80,"dy":-45,"t":16339},{"dx":89,"dy":-33,"t":16368},{"dx":82,"dy":-49,"t":16410},{"dx":69,"dy":-75,"t":16440},{"dx":18,"dy":-89,"t":16484},{"dx":-2,"dy":-83,"t":16515},{"dx":-12,"dy":-89,"t":16582},{"dx":-6,"dy":-99,"t":16608},{"dx":-70,"dy":-138,"t":16644},{"dx":-70,"dy":-155,"t":16674},{"dx":16,"dy":-106,"t":16710},{"dx":50,"dy":-70,"t":16737},{"dx":113,"dy":-17,"t":16776},{"dx":140,"dy":1,"t":16804},{"dx":108,"dy":-17,"t":16840},{"dx":86,"dy":-2,"t":16868},{"dx":47,"dy":-29,"t":16906},{"dx":44,"dy":-59,"t":16934},{"dx":70,"dy":-73,"t":16972},{"dx":63,"dy":-89,"t":17000},{"dx":20,"dy":-90,"t":17039},{"dx":8,"dy":-69,"t":17067},{"dx":-95,"dy":-42,"t":17105},{"dx":-179,"dy":-12,"t":17131},{"dx":-319,"dy":26,"t":17171},{"dx":-360,"dy":48,"t":17199},{"dx":-359,"dy":98,"t":17240},{"dx":-312,"dy":124,"t":17269},{"dx":-142,"dy":144,"t":17309},{"dx":-49,"dy":138,"t":17337},{"dx":3,"dy":126,"t":17376},{"dx":13,"dy":129,"t":17403},{"dx":51,"dy":75,"t":17441},{"dx":75,"dy":29,"t":17470},{"dx":92,"dy":-77,"t":17507},{"dx":95,"dy":-101,"t":17534},{"dx":197,"dy":-67,"t":17573},{"dx":237,"dy":-52,"t":17601},{"dx":235,"dy":-45,"t":17638},{"dx":230,"dy":-62,"t":17667},{"dx":220,"dy":-84,"t":17708},{"dx":215,"dy":-90,"t":17738},{"dx":151,"dy":-38,"t":17776},{"dx":144,"dy":-11,"t":17807},{"dx":92,"dy":3,"t":17843},{"dx":75,"dy":7,"t":17872},{"dx":1,"dy":17,"t":17912},{"dx":-37,"dy":17,"t":17939},{"dx":-37,"dy":17,"t":17980},{"dx":-39,"dy":-5,"t":18008},{"dx":-7,"dy":22,"t":18048},{"dx":7,"dy":28,"t":18077},{"dx":44,"dy":29,"t":18115},{"dx":58,"dy":36,"t":18145},{"dx":-2,"dy":5,"t":18171}],[{"dx":105,"dy":-91,"t":19161},{"dx":109,"dy":-67,"t":19226},{"dx":95,"dy":-69,"t":19254},{"dx":83,"dy":-88,"t":19291},{"dx":61,"dy":-92,"t":19320},{"dx":35,"dy":-159,"t":19361},{"dx":61,"dy":-183,"t":19391},{"dx":-31,"dy":-178,"t":19431},{"dx":-61,"dy":-137,"t":19461},{"dx":-39,"dy":-121,"t":19501},{"dx":-28,"dy":-129,"t":19530},{"dx":14,"dy":-121,"t":19569},{"dx":35,"dy":-136,"t":19596},{"dx":33,"dy":-132,"t":19636},{"dx":26,"dy":-132,"t":19663},{"dx":-19,"dy":-218,"t":19701},{"dx":-34,"dy":-260,"t":19731},{"dx":-73,"dy":-305,"t":19770},{"dx":-111,"dy":-308,"t":19797},{"dx":-105,"dy":-254,"t":19838},{"dx":-151,"dy":-243,"t":19867},{"dx":-219,"dy":-230,"t":19906},{"dx":-243,"dy":-228,"t":19933},{"dx":-158,"dy":-189,"t":19969},{"dx":-81,"dy":-171,"t":19999},{"dx":94,"dy":-192,"t":20039},{"dx":141,"dy":-224,"t":20067},{"dx":241,"dy":-227,"t":20106},{"dx":254,"dy":-232,"t":20133},{"dx":189,"dy":-133,"t":20172},{"dx":150,"dy":-88,"t":20199},{"dx":101,"dy":-73,"t":20240},{"dx":81,"dy":-69,"t":20267},{"dx":15,"dy":-91,"t":20306},{"dx":-25,"dy":-112,"t":20334},{"dx":-53,"dy":-135,"t":20375},{"dx":-47,"dy":-146,"t":20403},{"dx":-32,"dy":-156,"t":20453},{"dx":-25,"dy":-156,"t":20483},{"dx":-38,"dy":-129,"t":20520},{"dx":-46,"dy":-120,"t":20549},{"dx":-38,"dy":-121,"t":20588},{"dx":-34,"dy":-140,"t":20618},{"dx":-6,"dy":-165,"t":20658},{"dx":11,"dy":-183,"t":20686},{"dx":23,"dy":-222,"t":20724},{"dx":30,"dy":-241,"t":20754},{"dx":-38,"dy":-240,"t":20791},{"dx":-63,"dy":-239,"t":20821},{"dx":-122,"dy":-228,"t":20861},{"dx":-163,"dy":-223,"t":20888},{"dx":-124,"dy":-188,"t":20926},{"dx":-61,"dy":-163,"t":20953},{"dx":-11,"dy":-151,"t":20992},{"dx":-17,"dy":-159,"t":21020},{"dx":-8,"dy":-178,"t":21059},{"dx":5,"dy":-187,"t":21086},{"dx":-18,"dy":-214,"t":21126},{"dx":-47,"dy":-229,"t":21159},{"dx":-29,"dy":-233,"t":21186}],[{"dx":224,"dy":135,"t":22192},{"dx":273,"dy":134,"t":22223},{"dx":325,"dy":146,"t":22261},{"dx":369,"dy":190,"t":22291},{"dx":320,"dy":167,"t":22329},{"dx":312,"dy":155,"t":22360},{"dx":230,"dy":142,"t":22402},{"dx":203,"dy":136,"t":22434},{"dx":271,"dy":164,"t":22475},{"dx":329,"dy":177,"t":22502},{"dx":340,"dy":168,"t":22540},{"dx":307,"dy":150,"t":22570},{"dx":306,"dy":167,"t":22612},{"dx":311,"dy":178,"t":22640},{"dx":336,"dy":166,"t":22679},{"dx":334,"dy":155,"t":22707},{"dx":346,"dy":141,"t":22747},{"dx":353,"dy":158,"t":22777},{"dx":299,"dy":133,"t":22816},{"dx":257,"dy":128,"t":22845},{"dx":220,"dy":126,"t":22884},{"dx":234,"dy":123,"t":22913},{"dx":270,"dy":153,"t":22951},{"dx":294,"dy":174,"t":22979},{"dx":357,"dy":222,"t":23019},{"dx":394,"dy":246,"t":23048},{"dx":292,"dy":212,"t":23086},{"dx":265,"dy":195,"t":23116},{"dx":207,"dy":126,"t":23155},{"dx":182,"dy":95,"t":23183},{"dx":173,"dy":87,"t":23222},{"dx":185,"dy":92,"t":23250},{"dx":186,"dy":84,"t":23288},{"dx":177,"dy":74,"t":23316},{"dx":247,"dy":80,"t":23353},{"dx":286,"dy":97,"t":23383},{"dx":235,"dy":79,"t":23422},{"dx":205,"dy":68,"t":23449},{"dx":176,"dy":111,"t":23488},{"dx":173,"dy":131,"t":23517},{"dx":127,"dy":105,"t":23555},{"dx":147,"dy":97,"t":23583},{"dx":201,"dy":105,"t":23626},{"dx":250,"dy":117,"t":23657},{"dx":316,"dy":158,"t":23694},{"dx":317,"dy":153,"t":23723},{"dx":262,"dy":147,"t":23763},{"dx":249,"dy":149,"t":23793},{"dx":225,"dy":161,"t":23835},{"dx":215,"dy":169,"t":23867},{"dx":218,"dy":190,"t":23908},{"dx":228,"dy":202,"t":23938},{"dx":188,"dy":198,"t":23982},{"dx":161,"dy":184,"t":24011},{"dx":109,"dy":160,"t":24053},{"dx":86,"dy":151,"t":24081},{"dx":143,"dy":160,"t":24121},{"dx":194,"dy":168,"t":24152},{"dx":204,"dy":161,"t":24194},{"dx":211,"dy":168,"t":24206}],[{"dx":220,"dy":129,"t":25229},{"dx":216,"dy":124,"t":25258},{"dx":212,"dy":216,"t":25295},{"dx":205,"dy":283,"t":25323},{"dx":244,"dy":382,"t":25362},{"dx":250,"dy":416,"t":25393},{"dx":320,"dy":466,"t":25432},{"dx":377,"dy":472,"t":25462},{"dx":507,"dy":516,"t":25500},{"dx":556,"dy":544,"t":25528},{"dx":470,"dy":511,"t":25564},{"dx":450,"dy":472,"t":25591},{"dx":208,"dy":410,"t":25630},{"dx":78,"dy":369,"t":25661},{"dx":-74,"dy":221,"t":25701},{"dx":-138,"dy":159,"t":25732},{"dx":-217,"dy":98,"t":25774},{"dx":-241,"dy":79,"t":25802},{"dx":-143,"dy":58,"t":25841},{"dx":-129,"dy":77,"t":25868},{"dx":-51,"dy":115,"t":25907},{"dx":-12,"dy":139,"t":25936},{"dx":99,"dy":129,"t":25973},{"dx":160,"dy":114,"t":26003},{"dx":167,"dy":120,"t":26040},{"dx":169,"dy":133,"t":26068},{"dx":156,"dy":134,"t":26108},{"dx":142,"dy":125,"t":26135},{"dx":117,"dy":102,"t":26173},{"dx":105,"dy":90,"t":26201},{"dx":137,"dy":90,"t":26240},{"dx":153,"dy":94,"t":26269},{"dx":161,"dy":113,"t":26307},{"dx":156,"dy":125,"t":26337},{"dx":136,"dy":127,"t":26379},{"dx":122,"dy":120,"t":26407},{"dx":61,"dy":89,"t":26448},{"dx":37,"dy":67,"t":26476},{"dx":46,"dy":64,"t":26518},{"dx":58,"dy":76,"t":26546},{"dx":36,"dy":53,"t":26586},{"dx":38,"dy":41,"t":26616},{"dx":74,"dy":35,"t":26655},{"dx":40,"dy":27,"t":26682},{"dx":38,"dy":23,"t":26722},{"dx":40,"dy":40,"t":26750},{"dx":70,"dy":61,"t":26785},{"dx":90,"dy":74,"t":26814},{"dx":113,"dy":70,"t":26853},{"dx":113,"dy":62,"t":26879},{"dx":101,"dy":79,"t":26916},{"dx":136,"dy":94,"t":26943},{"dx":41,"dy":64,"t":26978},{"dx":24,"dy":61,"t":27006},{"dx":66,"dy":21,"t":27057},{"dx":62,"dy":17,"t":27104},{"dx":87,"dy":1,"t":27141},{"dx":81,"dy":3,"t":27169},{"dx":71,"dy":13,"t":27209},{"dx":65,"dy":15,"t":27221}],[{"dx":-28,"dy":-86,"t":28241},{"dx":-13,"dy":-99,"t":28270},{"dx":52,"dy":-140,"t":28307},{"dx":98,"dy":-132,"t":28335},{"dx":138,"dy":-105,"t":28375},{"dx":152,"dy":-87,"t":28403},{"dx":136,"dy":-60,"t":28443},{"dx":126,"dy":-69,"t":28471},{"dx":109,"dy":-54,"t":28508},{"dx":106,"dy":-42,"t":28536},{"dx":69,"dy":-24,"t":28574},{"dx":65,"dy":-12,"t":28602},{"dx":96,"dy":-28,"t":28640},{"dx":102,"dy":-42,"t":28670},{"dx":142,"dy":-77,"t":28707},{"dx":171,"dy":-95,"t":28735},{"dx":170,"dy":-115,"t":28775},{"dx":148,"dy":-119,"t":28805},{"dx":132,"dy":-87,"t":28842},{"dx":135,"dy":-57,"t":28870},{"dx":145,"dy":-29,"t":28915},{"dx":151,"dy":-28,"t":28946},{"dx":144,"dy":-18,"t":28988},{"dx":124,"dy":-24,"t":29018},{"dx":122,"dy":-58,"t":29057},{"dx":135,"dy":-84,"t":29085},{"dx":118,"dy":-77,"t":29126},{"dx":110,"dy":-59,"t":29153},{"dx":59,"dy":-37,"t":29193},{"dx":52,"dy":-18,"t":29223},{"dx":50,"dy":-24,"t":29261},{"dx":54,"dy":-44,"t":29288},{"dx":74,"dy":-18,"t":29326},{"dx":79,"dy":-6,"t":29352},{"dx":56,"dy":-62,"t":29391},{"dx":42,"dy":-82,"t":29419},{"dx":27,"dy":-115,"t":29460},{"dx":25,"dy":-128,"t":29486},{"dx":60,"dy":-114,"t":29522},{"dx":68,"dy":-93,"t":29550},{"dx":50,"dy":-72,"t":29587},{"dx":59,"dy":-56,"t":29615},{"dx":52,"dy":-21,"t":29652},{"dx":48,"dy":-17,"t":29682},{"dx":65,"dy":-24,"t":29720},{"dx":92,"dy":-23,"t":29747},{"dx":92,"dy":2,"t":29785},{"dx":56,"dy":-26,"t":29813},{"dx":21,"dy":-42,"t":29851},{"dx":15,"dy":-65,"t":29878},{"dx":51,"dy":-56,"t":29915},{"dx":70,"dy":-38,"t":29943},{"dx":138,"dy":-27,"t":29981},{"dx":162,"dy":-38,"t":30014},{"dx":132,"dy":-30,"t":30052},{"dx":117,"dy":-18,"t":30080},{"dx":68,"dy":-11,"t":30119},{"dx":32,"dy":-13,"t":30146},{"dx":55,"dy":-44,"t":30187},{"dx":64,"dy":-64,"t":30217},{"dx":94,"dy":-25,"t":30243}],[{"dx":83,"dy":275,"t":31238},{"dx":43,"dy":149,"t":31296},{"dx":14,"dy":67,"t":31323},{"dx":-9,"dy":-21,"t":31361},{"dx":-31,"dy":-37,"t":31391},{"dx":-53,"dy":-104,"t":31429},{"dx":-47,"dy":-127,"t":31459},{"dx":-99,"dy":-142,"t":31504},{"dx":-126,"dy":-153,"t":31533},{"dx":-147,"dy":-184,"t":31573},{"dx":-136,"dy":-200,"t":31603},{"dx":-79,"dy":-171,"t":31643},{"dx":-68,"dy":-175,"t":31675},{"dx":-29,"dy":-165,"t":31715},{"dx":-7,"dy":-160,"t":31744},{"dx":-49,"dy":-146,"t":31787},{"dx":-116,"dy":-145,"t":31819},{"dx":-52,"dy":-140,"t":31859},{"dx":-17,"dy":-137,"t":31891},{"dx":32,"dy":-150,"t":31927},{"dx":93,"dy":-178,"t":31956},{"dx":38,"dy":-183,"t":32000},{"dx":3,"dy":-199,"t":32030},{"dx":-57,"dy":-216,"t":32072},{"dx":-70,"dy":-200,"t":32101},{"dx":-77,"dy":-185,"t":32148},{"dx":-120,"dy":-167,"t":32179},{"dx":-118,"dy":-136,"t":32219},{"dx":-79,"dy":-139,"t":32250},{"dx":-84,"dy":-142,"t":32292},{"dx":-92,"dy":-148,"t":32320},{"dx":6,"dy":-119,"t":32359},{"dx":10,"dy":-118,"t":32388},{"dx":-32,"dy":-140,"t":32429},{"dx":-42,"dy":-147,"t":32461},{"dx":-85,"dy":-180,"t":32501},{"dx":-118,"dy":-186,"t":32529},{"dx":-244,"dy":-192,"t":32570},{"dx":-325,"dy":-193,"t":32624},{"dx":-265,"dy":-179,"t":32666},{"dx":-191,"dy":-182,"t":32696},{"dx":-73,"dy":-181,"t":32734},{"dx":-33,"dy":-175,"t":32762},{"dx":-9,"dy":-183,"t":32801},{"dx":-3,"dy":-189,"t":32830},{"dx":18,"dy":-181,"t":32867},{"dx":25,"dy":-191,"t":32896},{"dx":53,"dy":-157,"t":32935},{"dx":73,"dy":-142,"t":32964},{"dx":1,"dy":-166,"t":33001},{"dx":-26,"dy":-200,"t":33029},{"dx":-46,"dy":-180,"t":33067},{"dx":6,"dy":-171,"t":33097},{"dx":-77,"dy":-136,"t":33135},{"dx":-125,"dy":-130,"t":33162},{"dx":-151,"dy":-151,"t":33205},{"dx":-177,"dy":-161,"t":33237},{"dx":-187,"dy":-132,"t":33263}],[{"dx":48,"dy":-180,"t":34283},{"dx":131,"dy":-163,"t":34327},{"dx":180,"dy":-137,"t":34355},{"dx":207,"dy":-127,"t":34393},{"dx":192,"dy":-138,"t":34421},{"dx":151,"dy":-160,"t":34462},{"dx":128,"dy":-170,"t":34491},{"dx":139,"dy":-152,"t":34531},{"dx":153,"dy":-140,"t":34558},{"dx":58,"dy":-164,"t":34594},{"dx":-7,"dy":-193,"t":34621},{"dx":56,"dy":-161,"t":34657},{"dx":77,"dy":-142,"t":34685},{"dx":89,"dy":-113,"t":34724},{"dx":98,"dy":-113,"t":34754},{"dx":174,"dy":-142,"t":34790},{"dx":217,"dy":-158,"t":34817},{"dx":263,"dy":-144,"t":34855},{"dx":269,"dy":-121,"t":34885},{"dx":260,"dy":-63,"t":34922},{"dx":248,"dy":-30,"t":34950},{"dx":222,"dy":0,"t":34988},{"dx":159,"dy":-23,"t":35018},{"dx":120,"dy":-64,"t":35054},{"dx":137,"dy":-69,"t":35081},{"dx":103,"dy":-70,"t":35121},{"dx":88,"dy":-68,"t":35149},{"dx":47,"dy":-49,"t":35187},{"dx":24,"dy":-36,"t":35216},{"dx":6,"dy":-3,"t":35254},{"dx":8,"dy":14,"t":35284},{"dx":30,"dy":13,"t":35325},{"dx":46,"dy":-1,"t":35354},{"dx":13,"dy":-43,"t":35392},{"dx":-16,"dy":-58,"t":35421},{"dx":26,"dy":-35,"t":35464},{"dx":54,"dy":-7,"t":35492},{"dx":93,"dy":10,"t":35531},{"dx":106,"dy":15,"t":35557},{"dx":143,"dy":-18,"t":35594},{"dx":165,"dy":-14,"t":35621},{"dx":223,"dy":-55,"t":35659},{"dx":221,"dy":-75,"t":35686},{"dx":199,"dy":-84,"t":35723},{"dx":206,"dy":-82,"t":35752},{"dx":324,"dy":-120,"t":35789},{"dx":352,"dy":-149,"t":35818},{"dx":316,"dy":-161,"t":35855},{"dx":291,"dy":-151,"t":35883},{"dx":254,"dy":-113,"t":35923},{"dx":228,"dy":-72,"t":35954},{"dx":171,"dy":-66,"t":35992},{"dx":130,"dy":-61,"t":36020},{"dx":112,"dy":-7,"t":36057},{"dx":127,"dy":11,"t":36084},{"dx":120,"dy":24,"t":36125},{"dx":100,"dy":15,"t":36151},{"dx":48,"dy":-6,"t":36189},{"dx":51,"dy":-35,"t":36217},{"dx":54,"dy":-23,"t":36256},{"dx":75,"dy":-24,"t":36267}],[{"dx":204,"dy":-174,"t":37281},{"dx":198,"dy":-158,"t":37313},{"dx":209,"dy":-124,"t":37350},{"dx":214,"dy":-103,"t":37378},{"dx":176,"dy":-70,"t":37417},{"dx":158,"dy":-60,"t":37446},{"dx":90,"dy":-90,"t":37486},{"dx":34,"dy":-114,"t":37514},{"dx":59,"dy":-105,"t":37552},{"dx":94,"dy":-99,"t":37581},{"dx":96,"dy":-116,"t":37619},{"dx":52,"dy":-144,"t":37646},{"dx":46,"dy":-176,"t":37682},{"dx":80,"dy":-168,"t":37711},{"dx":69,"dy":-158,"t":37748},{"dx":34,"dy":-154,"t":37777},{"dx":36,"dy":-119,"t":37814},{"dx":64,"dy":-91,"t":37844},{"dx":140,"dy":-100,"t":37880},{"dx":169,"dy":-103,"t":37910},{"dx":186,"dy":-134,"t":37949},{"dx":178,"dy":-157,"t":37980},{"dx":160,"dy":-182,"t":38023},{"dx":151,"dy":-185,"t":38075},{"dx":85,"dy":-196,"t":38113},{"dx":80,"dy":-190,"t":38141},{"dx":52,"dy":-141,"t":38179},{"dx":41,"dy":-140,"t":38205},{"dx":19,"dy":-114,"t":38246},{"dx":14,"dy":-109,"t":38274},{"dx":0,"dy":-98,"t":38313},{"dx":34,"dy":-93,"t":38341},{"dx":19,"dy":-108,"t":38379},{"dx":12,"dy":-132,"t":38407},{"dx":19,"dy":-166,"t":38448},{"dx":17,"dy":-194,"t":38476},{"dx":1,"dy":-214,"t":38514},{"dx":-18,"dy":-211,"t":38543},{"dx":19,"dy":-133,"t":38587},{"dx":18,"dy":-129,"t":38615},{"dx":23,"dy":-109,"t":38653},{"dx":24,"dy":-102,"t":38680},{"dx":61,"dy":-96,"t":38718},{"dx":92,"dy":-97,"t":38744},{"dx":110,"dy":-90,"t":38783},{"dx":102,"dy":-83,"t":38810},{"dx":100,"dy":-77,"t":38848},{"dx":96,"dy":-66,"t":38876},{"dx":50,"dy":-82,"t":38914},{"dx":15,"dy":-104,"t":38941},{"dx":47,"dy":-127,"t":38978},{"dx":48,"dy":-130,"t":39007},{"dx":24,"dy":-137,"t":39048},{"dx":28,"dy":-139,"t":39075},{"dx":68,"dy":-175,"t":39112},{"dx":82,"dy":-205,"t":39139},{"dx":50,"dy":-210,"t":39178},{"dx":34,"dy":-206,"t":39207},{"dx":20,"dy":-217,"t":39255}]],"percent_in_roi":[43.333333333333336,48.275862068965516,65.57377049180327,76.27118644067797,0,75,35,0,43.333333333333336,81.9672131147541,17.24137931034483,44.26229508196721,49.152542372881356],"average_offset":[{"x":153.93333333333334,"y":-77.93333333333334,"r":165.08930809045214},{"x":113.70689655172414,"y":-65.65517241379311,"r":128.9235965033325},{"x":-22.508196721311474,"y":-75.52459016393442,"r":91.19359168091627},{"x":-25.779661016949152,"y":-82.52542372881356,"r":77.89216280308253},{"x":99.49180327868852,"y":-189.2622950819672,"r":71.40176684452014},{"x":24.183333333333334,"y":-17.916666666666668,"r":112.4556842665732},{"x":-6.766666666666667,"y":-170.46666666666667,"r":104.42956304021104},{"x":247.56666666666666,"y":146.13333333333333,"r":103.02667255064526},{"x":114.6,"y":150.36666666666667,"r":188.6874648865562},{"x":87.44262295081967,"y":-55.01639344262295,"r":48.81244923393003},{"x":-59.87931034482759,"y":-141.74137931034483,"r":100.7690804974821},{"x":136.18032786885246,"y":-76.24590163934427,"r":94.64096712252926},{"x":74.28813559322033,"y":-133.96610169491527,"r":58.782847449456}],"samples_per_sec":"29.27","clicks":25,"pattern":"spread","trial_type":"webgazer-validate","trial_index":13,"time_elapsed":102215,"internal_node_id":"0.0-10.0-3.0","validation_points":[[15,85],[62.5,37.5],[85,15],[75,75],[75,25],[62.5,62.5],[85,85],[15,15],[25,25],[37.5,62.5],[37.5,37.5],[25,75],[50,50]],"user_agent":"Mozilla/5.0 (Windows NT 10.0; Win64; x64) AppleWebKit/537.36 (KHTML, like Gecko) Chrome/88.0.4324.190 Safari/537.36","screen_width_px":1920,"screen_height_px":1080},{"rt":2804.420000000391,"stimulus":"\n      <p>Round complete.</p>\n      <p>You can move a little bit, but please try to return you head to the same general location before continuing.</p>\n    ","response":0,"trial_type":"html-button-response","trial_index":14,"time_elapsed":105022,"internal_node_id":"0.0-10.0-4.0","user_agent":"Mozilla/5.0 (Windows NT 10.0; Win64; x64) AppleWebKit/537.36 (KHTML, like Gecko) Chrome/88.0.4324.190 Safari/537.36","screen_width_px":1920,"screen_height_px":1080},{"trial_type":"webgazer-init-camera","trial_index":15,"time_elapsed":107586,"internal_node_id":"0.0-10.0-5.0","user_agent":"Mozilla/5.0 (Windows NT 10.0; Win64; x64) AppleWebKit/537.36 (KHTML, like Gecko) Chrome/88.0.4324.190 Safari/537.36","screen_width_px":1920,"screen_height_px":1080},{"rt":794.8000000033062,"stimulus":"\n      <p>Calibration phase next.</p>\n      <p>Click on the dots.</p>\n    ","response":0,"trial_type":"html-button-response","trial_index":16,"time_elapsed":108382,"internal_node_id":"0.0-10.0-0.1","user_agent":"Mozilla/5.0 (Windows NT 10.0; Win64; x64) AppleWebKit/537.36 (KHTML, like Gecko) Chrome/88.0.4324.190 Safari/537.36","screen_width_px":1920,"screen_height_px":1080},{"trial_type":"webgazer-calibrate","trial_index":17,"time_elapsed":124263,"internal_node_id":"0.0-10.0-1.1","user_agent":"Mozilla/5.0 (Windows NT 10.0; Win64; x64) AppleWebKit/537.36 (KHTML, like Gecko) Chrome/88.0.4324.190 Safari/537.36","screen_width_px":1920,"screen_height_px":1080},{"rt":853.8849999895319,"stimulus":"\n      <p>Validation phase next.</p>\n      <p>Look at the dots.</p>\n    ","response":0,"trial_type":"html-button-response","trial_index":18,"time_elapsed":125118,"internal_node_id":"0.0-10.0-2.1","user_agent":"Mozilla/5.0 (Windows NT 10.0; Win64; x64) AppleWebKit/537.36 (KHTML, like Gecko) Chrome/88.0.4324.190 Safari/537.36","screen_width_px":1920,"screen_height_px":1080},{"raw_gaze":[[{"dx":-8,"dy":-50,"t":1070},{"dx":-3,"dy":-49,"t":1101},{"dx":-35,"dy":-43,"t":1144},{"dx":-63,"dy":-47,"t":1174},{"dx":-18,"dy":-78,"t":1215},{"dx":38,"dy":-104,"t":1244},{"dx":52,"dy":-85,"t":1285},{"dx":124,"dy":-101,"t":1314},{"dx":158,"dy":-87,"t":1353},{"dx":167,"dy":-67,"t":1381},{"dx":189,"dy":-51,"t":1420},{"dx":292,"dy":-60,"t":1447},{"dx":205,"dy":-31,"t":1486},{"dx":198,"dy":-14,"t":1516},{"dx":50,"dy":19,"t":1556},{"dx":68,"dy":51,"t":1585},{"dx":-46,"dy":45,"t":1624},{"dx":-76,"dy":46,"t":1652},{"dx":-112,"dy":15,"t":1689},{"dx":-130,"dy":5,"t":1717},{"dx":-136,"dy":-23,"t":1757},{"dx":-111,"dy":-64,"t":1787},{"dx":-124,"dy":-42,"t":1828},{"dx":-111,"dy":-49,"t":1857},{"dx":-78,"dy":-28,"t":1903},{"dx":-93,"dy":-33,"t":1932},{"dx":-119,"dy":-63,"t":1972},{"dx":-128,"dy":-38,"t":1999},{"dx":-155,"dy":-49,"t":2039},{"dx":-181,"dy":-60,"t":2067},{"dx":-143,"dy":-48,"t":2108},{"dx":-92,"dy":-49,"t":2135},{"dx":-63,"dy":-37,"t":2190},{"dx":-58,"dy":-39,"t":2236},{"dx":-35,"dy":-113,"t":2280},{"dx":-9,"dy":-172,"t":2307},{"dx":-33,"dy":-111,"t":2343},{"dx":-59,"dy":-114,"t":2368},{"dx":-51,"dy":-89,"t":2408},{"dx":-61,"dy":-83,"t":2435},{"dx":-123,"dy":-37,"t":2474},{"dx":-187,"dy":-9,"t":2501},{"dx":-166,"dy":-16,"t":2538},{"dx":-143,"dy":-41,"t":2567},{"dx":-96,"dy":-55,"t":2606},{"dx":-101,"dy":-52,"t":2633},{"dx":-123,"dy":-34,"t":2673},{"dx":-155,"dy":-20,"t":2703},{"dx":-157,"dy":-32,"t":2743},{"dx":-164,"dy":0,"t":2771},{"dx":-202,"dy":40,"t":2809},{"dx":-228,"dy":50,"t":2838},{"dx":-250,"dy":38,"t":2877},{"dx":-265,"dy":12,"t":2903},{"dx":-281,"dy":-5,"t":2939},{"dx":-285,"dy":-1,"t":2970},{"dx":-232,"dy":-17,"t":3014},{"dx":-196,"dy":-16,"t":3043},{"dx":-168,"dy":-18,"t":3070}],[{"dx":-82,"dy":46,"t":4088},{"dx":-81,"dy":31,"t":4114},{"dx":-53,"dy":-8,"t":4151},{"dx":-48,"dy":-13,"t":4181},{"dx":-44,"dy":6,"t":4222},{"dx":-49,"dy":25,"t":4252},{"dx":-76,"dy":28,"t":4296},{"dx":-72,"dy":21,"t":4327},{"dx":9,"dy":16,"t":4368},{"dx":41,"dy":23,"t":4397},{"dx":51,"dy":48,"t":4437},{"dx":35,"dy":65,"t":4466},{"dx":269,"dy":52,"t":4504},{"dx":419,"dy":61,"t":4532},{"dx":638,"dy":-2,"t":4575},{"dx":727,"dy":-26,"t":4606},{"dx":850,"dy":-15,"t":4648},{"dx":889,"dy":-14,"t":4676},{"dx":837,"dy":17,"t":4716},{"dx":794,"dy":45,"t":4745},{"dx":593,"dy":97,"t":4788},{"dx":526,"dy":108,"t":4820},{"dx":435,"dy":100,"t":4861},{"dx":404,"dy":87,"t":4890},{"dx":364,"dy":73,"t":4928},{"dx":362,"dy":52,"t":4956},{"dx":362,"dy":24,"t":4994},{"dx":363,"dy":15,"t":5022},{"dx":233,"dy":9,"t":5060},{"dx":188,"dy":0,"t":5091},{"dx":137,"dy":35,"t":5133},{"dx":138,"dy":51,"t":5160},{"dx":131,"dy":69,"t":5197},{"dx":104,"dy":71,"t":5225},{"dx":117,"dy":90,"t":5265},{"dx":136,"dy":96,"t":5294},{"dx":133,"dy":82,"t":5335},{"dx":113,"dy":81,"t":5362},{"dx":150,"dy":29,"t":5401},{"dx":180,"dy":-2,"t":5428},{"dx":198,"dy":-12,"t":5469},{"dx":209,"dy":-26,"t":5496},{"dx":185,"dy":-9,"t":5535},{"dx":180,"dy":1,"t":5563},{"dx":163,"dy":-24,"t":5604},{"dx":180,"dy":-37,"t":5634},{"dx":175,"dy":-4,"t":5674},{"dx":135,"dy":12,"t":5701},{"dx":97,"dy":9,"t":5740},{"dx":121,"dy":13,"t":5768},{"dx":138,"dy":33,"t":5806},{"dx":124,"dy":33,"t":5836},{"dx":113,"dy":56,"t":5879},{"dx":111,"dy":52,"t":5906},{"dx":130,"dy":46,"t":5944},{"dx":132,"dy":52,"t":5970},{"dx":68,"dy":45,"t":6009},{"dx":62,"dy":21,"t":6036},{"dx":59,"dy":39,"t":6076},{"dx":69,"dy":31,"t":6088}],[{"dx":389,"dy":-96,"t":7103},{"dx":421,"dy":-92,"t":7148},{"dx":426,"dy":-91,"t":7176},{"dx":323,"dy":-64,"t":7218},{"dx":285,"dy":-62,"t":7248},{"dx":241,"dy":-31,"t":7293},{"dx":232,"dy":-11,"t":7320},{"dx":221,"dy":18,"t":7363},{"dx":219,"dy":28,"t":7394},{"dx":256,"dy":7,"t":7433},{"dx":288,"dy":-18,"t":7460},{"dx":402,"dy":-56,"t":7499},{"dx":489,"dy":-91,"t":7528},{"dx":645,"dy":-91,"t":7567},{"dx":695,"dy":-90,"t":7596},{"dx":747,"dy":-76,"t":7632},{"dx":775,"dy":-74,"t":7663},{"dx":694,"dy":-43,"t":7704},{"dx":676,"dy":-40,"t":7757},{"dx":714,"dy":-59,"t":7799},{"dx":724,"dy":-66,"t":7828},{"dx":718,"dy":-67,"t":7868},{"dx":721,"dy":-64,"t":7894},{"dx":739,"dy":-49,"t":7933},{"dx":746,"dy":-53,"t":7960},{"dx":771,"dy":-55,"t":8001},{"dx":771,"dy":-58,"t":8028},{"dx":791,"dy":-149,"t":8067},{"dx":821,"dy":-233,"t":8094},{"dx":926,"dy":-428,"t":8135},{"dx":976,"dy":-532,"t":8164},{"dx":1033,"dy":-648,"t":8202},{"dx":1030,"dy":-691,"t":8232},{"dx":1011,"dy":-756,"t":8271},{"dx":984,"dy":-780,"t":8304},{"dx":972,"dy":-694,"t":8344},{"dx":977,"dy":-662,"t":8372},{"dx":958,"dy":-574,"t":8412},{"dx":946,"dy":-531,"t":8441},{"dx":935,"dy":-450,"t":8480},{"dx":930,"dy":-404,"t":8508},{"dx":889,"dy":-345,"t":8546},{"dx":868,"dy":-309,"t":8573},{"dx":813,"dy":-259,"t":8614},{"dx":783,"dy":-233,"t":8642},{"dx":817,"dy":-191,"t":8681},{"dx":869,"dy":-174,"t":8710},{"dx":826,"dy":-138,"t":8750},{"dx":819,"dy":-122,"t":8781},{"dx":791,"dy":-93,"t":8821},{"dx":767,"dy":-80,"t":8850},{"dx":775,"dy":-22,"t":8889},{"dx":775,"dy":-1,"t":8918},{"dx":744,"dy":-34,"t":8957},{"dx":742,"dy":-58,"t":8985},{"dx":714,"dy":-37,"t":9024},{"dx":712,"dy":-47,"t":9052},{"dx":722,"dy":-67,"t":9091},{"dx":749,"dy":-80,"t":9103}],[{"dx":258,"dy":380,"t":10122},{"dx":236,"dy":348,"t":10151},{"dx":259,"dy":385,"t":10191},{"dx":267,"dy":397,"t":10223},{"dx":413,"dy":443,"t":10259},{"dx":517,"dy":483,"t":10289},{"dx":446,"dy":469,"t":10328},{"dx":424,"dy":487,"t":10358},{"dx":346,"dy":371,"t":10399},{"dx":306,"dy":332,"t":10433},{"dx":321,"dy":362,"t":10473},{"dx":312,"dy":377,"t":10503},{"dx":404,"dy":406,"t":10543},{"dx":501,"dy":431,"t":10572},{"dx":498,"dy":425,"t":10610},{"dx":470,"dy":453,"t":10639},{"dx":378,"dy":414,"t":10676},{"dx":346,"dy":401,"t":10705},{"dx":309,"dy":399,"t":10748},{"dx":317,"dy":404,"t":10776},{"dx":253,"dy":395,"t":10815},{"dx":221,"dy":378,"t":10845},{"dx":203,"dy":318,"t":10886},{"dx":210,"dy":280,"t":10916},{"dx":262,"dy":363,"t":10954},{"dx":275,"dy":393,"t":10984},{"dx":324,"dy":437,"t":11021},{"dx":376,"dy":459,"t":11050},{"dx":377,"dy":457,"t":11087},{"dx":342,"dy":438,"t":11117},{"dx":246,"dy":407,"t":11157},{"dx":207,"dy":363,"t":11185},{"dx":187,"dy":339,"t":11224},{"dx":165,"dy":320,"t":11253},{"dx":171,"dy":338,"t":11295},{"dx":211,"dy":365,"t":11324},{"dx":309,"dy":404,"t":11363},{"dx":354,"dy":442,"t":11393},{"dx":404,"dy":431,"t":11431},{"dx":382,"dy":450,"t":11461},{"dx":335,"dy":347,"t":11503},{"dx":347,"dy":274,"t":11531},{"dx":334,"dy":319,"t":11572},{"dx":315,"dy":323,"t":11603},{"dx":290,"dy":349,"t":11642},{"dx":292,"dy":365,"t":11671},{"dx":277,"dy":357,"t":11711},{"dx":300,"dy":386,"t":11743},{"dx":263,"dy":322,"t":11781},{"dx":239,"dy":273,"t":11812},{"dx":406,"dy":344,"t":11850},{"dx":554,"dy":409,"t":11880},{"dx":654,"dy":488,"t":11919},{"dx":718,"dy":518,"t":11948},{"dx":595,"dy":543,"t":11989},{"dx":530,"dy":527,"t":12018},{"dx":437,"dy":493,"t":12057},{"dx":375,"dy":469,"t":12089},{"dx":314,"dy":442,"t":12121}],[{"dx":201,"dy":327,"t":13121},{"dx":194,"dy":320,"t":13148},{"dx":195,"dy":330,"t":13189},{"dx":202,"dy":343,"t":13218},{"dx":225,"dy":323,"t":13257},{"dx":235,"dy":310,"t":13286},{"dx":241,"dy":296,"t":13325},{"dx":250,"dy":293,"t":13363},{"dx":232,"dy":267,"t":13415},{"dx":207,"dy":249,"t":13444},{"dx":168,"dy":241,"t":13484},{"dx":151,"dy":249,"t":13513},{"dx":105,"dy":249,"t":13555},{"dx":77,"dy":254,"t":13583},{"dx":87,"dy":269,"t":13629},{"dx":115,"dy":282,"t":13657},{"dx":173,"dy":325,"t":13695},{"dx":197,"dy":347,"t":13724},{"dx":217,"dy":351,"t":13763},{"dx":230,"dy":340,"t":13792},{"dx":213,"dy":295,"t":13829},{"dx":205,"dy":275,"t":13857},{"dx":177,"dy":287,"t":13897},{"dx":181,"dy":301,"t":13927},{"dx":228,"dy":317,"t":13964},{"dx":254,"dy":322,"t":13993},{"dx":188,"dy":294,"t":14031},{"dx":168,"dy":283,"t":14061},{"dx":160,"dy":270,"t":14099},{"dx":167,"dy":267,"t":14127},{"dx":161,"dy":266,"t":14166},{"dx":162,"dy":265,"t":14195},{"dx":136,"dy":256,"t":14232},{"dx":108,"dy":252,"t":14259},{"dx":90,"dy":254,"t":14299},{"dx":104,"dy":257,"t":14328},{"dx":99,"dy":261,"t":14366},{"dx":98,"dy":263,"t":14395},{"dx":104,"dy":267,"t":14438},{"dx":106,"dy":274,"t":14466},{"dx":105,"dy":269,"t":14507},{"dx":98,"dy":262,"t":14536},{"dx":107,"dy":258,"t":14575},{"dx":119,"dy":257,"t":14605},{"dx":133,"dy":251,"t":14649},{"dx":131,"dy":252,"t":14681},{"dx":133,"dy":219,"t":14733},{"dx":140,"dy":219,"t":14760},{"dx":132,"dy":190,"t":14796},{"dx":141,"dy":206,"t":14824},{"dx":136,"dy":235,"t":14863},{"dx":132,"dy":245,"t":14889},{"dx":204,"dy":262,"t":14930},{"dx":230,"dy":282,"t":14957},{"dx":287,"dy":294,"t":14995},{"dx":315,"dy":313,"t":15022},{"dx":321,"dy":319,"t":15062},{"dx":319,"dy":313,"t":15090},{"dx":312,"dy":301,"t":15117}],[{"dx":-539,"dy":-51,"t":16117},{"dx":-503,"dy":-69,"t":16177},{"dx":-488,"dy":-81,"t":16204},{"dx":-523,"dy":-54,"t":16242},{"dx":-511,"dy":-56,"t":16273},{"dx":-547,"dy":-52,"t":16317},{"dx":-558,"dy":-49,"t":16349},{"dx":-563,"dy":-101,"t":16386},{"dx":-587,"dy":-102,"t":16414},{"dx":-592,"dy":-99,"t":16454},{"dx":-595,"dy":-91,"t":16481},{"dx":-648,"dy":-92,"t":16522},{"dx":-684,"dy":-102,"t":16551},{"dx":-682,"dy":-76,"t":16590},{"dx":-677,"dy":-61,"t":16620},{"dx":-648,"dy":-54,"t":16659},{"dx":-637,"dy":-43,"t":16690},{"dx":-593,"dy":-61,"t":16734},{"dx":-576,"dy":-67,"t":16762},{"dx":-538,"dy":-70,"t":16804},{"dx":-523,"dy":-71,"t":16836},{"dx":-453,"dy":-78,"t":16874},{"dx":-448,"dy":-66,"t":16905},{"dx":-458,"dy":-74,"t":16945},{"dx":-469,"dy":-88,"t":16975},{"dx":-500,"dy":-75,"t":17015},{"dx":-514,"dy":-70,"t":17046},{"dx":-548,"dy":-63,"t":17084},{"dx":-565,"dy":-60,"t":17114},{"dx":-546,"dy":-114,"t":17154},{"dx":-542,"dy":-130,"t":17185},{"dx":-483,"dy":-152,"t":17223},{"dx":-451,"dy":-147,"t":17252},{"dx":-439,"dy":-161,"t":17298},{"dx":-449,"dy":-161,"t":17328},{"dx":-448,"dy":-150,"t":17368},{"dx":-466,"dy":-145,"t":17398},{"dx":-479,"dy":-124,"t":17436},{"dx":-485,"dy":-123,"t":17464},{"dx":-514,"dy":-131,"t":17502},{"dx":-546,"dy":-133,"t":17530},{"dx":-516,"dy":-111,"t":17574},{"dx":-484,"dy":-109,"t":17601},{"dx":-514,"dy":-117,"t":17640},{"dx":-519,"dy":-118,"t":17671},{"dx":-529,"dy":-108,"t":17710},{"dx":-540,"dy":-101,"t":17740},{"dx":-533,"dy":-84,"t":17778},{"dx":-502,"dy":-79,"t":17806},{"dx":-464,"dy":-67,"t":17842},{"dx":-470,"dy":-69,"t":17876},{"dx":-431,"dy":-93,"t":17913},{"dx":-404,"dy":-111,"t":17941},{"dx":-402,"dy":-111,"t":17983},{"dx":-431,"dy":-126,"t":18010},{"dx":-440,"dy":-150,"t":18046},{"dx":-436,"dy":-149,"t":18074},{"dx":-354,"dy":-114,"t":18111},{"dx":-309,"dy":-98,"t":18123}],[{"dx":-103,"dy":280,"t":19146},{"dx":-31,"dy":253,"t":19197},{"dx":-4,"dy":248,"t":19240},{"dx":2,"dy":233,"t":19283},{"dx":1,"dy":228,"t":19313},{"dx":29,"dy":185,"t":19350},{"dx":60,"dy":158,"t":19379},{"dx":27,"dy":163,"t":19418},{"dx":23,"dy":143,"t":19449},{"dx":-44,"dy":179,"t":19486},{"dx":-62,"dy":161,"t":19514},{"dx":-154,"dy":229,"t":19552},{"dx":-193,"dy":251,"t":19582},{"dx":-256,"dy":281,"t":19623},{"dx":-272,"dy":293,"t":19651},{"dx":-320,"dy":314,"t":19693},{"dx":-343,"dy":318,"t":19721},{"dx":-343,"dy":322,"t":19761},{"dx":-325,"dy":324,"t":19792},{"dx":-339,"dy":310,"t":19834},{"dx":-338,"dy":312,"t":19866},{"dx":-318,"dy":315,"t":19906},{"dx":-309,"dy":316,"t":19938},{"dx":-307,"dy":315,"t":19978},{"dx":-312,"dy":313,"t":20009},{"dx":-343,"dy":308,"t":20050},{"dx":-346,"dy":308,"t":20079},{"dx":-322,"dy":321,"t":20116},{"dx":-318,"dy":325,"t":20144},{"dx":-279,"dy":373,"t":20180},{"dx":-248,"dy":411,"t":20209},{"dx":-222,"dy":462,"t":20250},{"dx":-209,"dy":473,"t":20277},{"dx":-192,"dy":431,"t":20321},{"dx":-181,"dy":387,"t":20348},{"dx":-192,"dy":373,"t":20387},{"dx":-204,"dy":366,"t":20414},{"dx":-229,"dy":328,"t":20454},{"dx":-234,"dy":311,"t":20481},{"dx":-217,"dy":293,"t":20519},{"dx":-232,"dy":282,"t":20547},{"dx":-250,"dy":264,"t":20586},{"dx":-258,"dy":263,"t":20614},{"dx":-258,"dy":267,"t":20652},{"dx":-249,"dy":275,"t":20680},{"dx":-249,"dy":276,"t":20721},{"dx":-256,"dy":270,"t":20754},{"dx":-271,"dy":270,"t":20792},{"dx":-279,"dy":274,"t":20820},{"dx":-277,"dy":301,"t":20864},{"dx":-273,"dy":314,"t":20891},{"dx":-203,"dy":310,"t":20928},{"dx":-178,"dy":304,"t":20956},{"dx":-161,"dy":312,"t":20995},{"dx":-165,"dy":306,"t":21026},{"dx":-149,"dy":294,"t":21070},{"dx":-129,"dy":295,"t":21100},{"dx":-107,"dy":308,"t":21138},{"dx":-123,"dy":311,"t":21150}],[{"dx":126,"dy":174,"t":22175},{"dx":133,"dy":187,"t":22204},{"dx":150,"dy":213,"t":22243},{"dx":156,"dy":217,"t":22279},{"dx":136,"dy":224,"t":22316},{"dx":108,"dy":216,"t":22344},{"dx":76,"dy":195,"t":22382},{"dx":59,"dy":177,"t":22412},{"dx":57,"dy":162,"t":22452},{"dx":59,"dy":157,"t":22488},{"dx":77,"dy":166,"t":22525},{"dx":81,"dy":158,"t":22557},{"dx":72,"dy":152,"t":22596},{"dx":73,"dy":154,"t":22625},{"dx":67,"dy":155,"t":22668},{"dx":59,"dy":149,"t":22698},{"dx":88,"dy":177,"t":22741},{"dx":93,"dy":186,"t":22769},{"dx":77,"dy":179,"t":22813},{"dx":70,"dy":177,"t":22840},{"dx":71,"dy":167,"t":22883},{"dx":73,"dy":163,"t":22916},{"dx":51,"dy":152,"t":22957},{"dx":27,"dy":148,"t":22985},{"dx":20,"dy":158,"t":23022},{"dx":-1,"dy":162,"t":23049},{"dx":-25,"dy":160,"t":23088},{"dx":-22,"dy":159,"t":23116},{"dx":-29,"dy":157,"t":23154},{"dx":-22,"dy":166,"t":23185},{"dx":15,"dy":184,"t":23223},{"dx":38,"dy":188,"t":23250},{"dx":38,"dy":174,"t":23293},{"dx":37,"dy":168,"t":23321},{"dx":42,"dy":169,"t":23361},{"dx":48,"dy":174,"t":23389},{"dx":49,"dy":162,"t":23429},{"dx":56,"dy":145,"t":23458},{"dx":97,"dy":185,"t":23497},{"dx":145,"dy":236,"t":23526},{"dx":158,"dy":297,"t":23566},{"dx":127,"dy":335,"t":23594},{"dx":116,"dy":346,"t":23633},{"dx":116,"dy":341,"t":23661},{"dx":120,"dy":315,"t":23700},{"dx":120,"dy":297,"t":23730},{"dx":148,"dy":267,"t":23768},{"dx":147,"dy":255,"t":23796},{"dx":160,"dy":240,"t":23834},{"dx":172,"dy":235,"t":23863},{"dx":179,"dy":222,"t":23902},{"dx":174,"dy":212,"t":23931},{"dx":176,"dy":218,"t":23969},{"dx":179,"dy":220,"t":23996},{"dx":134,"dy":212,"t":24033},{"dx":102,"dy":208,"t":24061},{"dx":43,"dy":225,"t":24100},{"dx":56,"dy":221,"t":24127},{"dx":44,"dy":236,"t":24166},{"dx":34,"dy":241,"t":24177}],[{"dx":300,"dy":-31,"t":25215},{"dx":293,"dy":-21,"t":25246},{"dx":304,"dy":13,"t":25298},{"dx":298,"dy":24,"t":25329},{"dx":306,"dy":36,"t":25367},{"dx":316,"dy":24,"t":25396},{"dx":332,"dy":4,"t":25442},{"dx":343,"dy":3,"t":25472},{"dx":338,"dy":33,"t":25511},{"dx":326,"dy":59,"t":25541},{"dx":327,"dy":55,"t":25582},{"dx":317,"dy":52,"t":25611},{"dx":310,"dy":35,"t":25653},{"dx":305,"dy":31,"t":25682},{"dx":307,"dy":7,"t":25722},{"dx":304,"dy":-7,"t":25752},{"dx":255,"dy":-3,"t":25793},{"dx":225,"dy":10,"t":25824},{"dx":214,"dy":42,"t":25863},{"dx":226,"dy":60,"t":25895},{"dx":308,"dy":71,"t":25936},{"dx":336,"dy":65,"t":25966},{"dx":322,"dy":63,"t":26015},{"dx":296,"dy":62,"t":26047},{"dx":292,"dy":53,"t":26090},{"dx":297,"dy":55,"t":26118},{"dx":330,"dy":48,"t":26156},{"dx":349,"dy":45,"t":26185},{"dx":355,"dy":57,"t":26223},{"dx":360,"dy":71,"t":26252},{"dx":479,"dy":232,"t":26296},{"dx":574,"dy":343,"t":26326},{"dx":767,"dy":517,"t":26374},{"dx":844,"dy":593,"t":26405},{"dx":782,"dy":595,"t":26443},{"dx":708,"dy":537,"t":26472},{"dx":590,"dy":429,"t":26512},{"dx":542,"dy":385,"t":26542},{"dx":475,"dy":274,"t":26579},{"dx":452,"dy":214,"t":26607},{"dx":383,"dy":140,"t":26646},{"dx":350,"dy":125,"t":26674},{"dx":349,"dy":96,"t":26715},{"dx":301,"dy":75,"t":26746},{"dx":322,"dy":51,"t":26785},{"dx":351,"dy":39,"t":26814},{"dx":384,"dy":45,"t":26855},{"dx":389,"dy":60,"t":26886},{"dx":344,"dy":67,"t":26926},{"dx":326,"dy":77,"t":26957},{"dx":267,"dy":86,"t":26996},{"dx":242,"dy":82,"t":27025},{"dx":248,"dy":68,"t":27065},{"dx":282,"dy":76,"t":27095},{"dx":279,"dy":112,"t":27136},{"dx":267,"dy":131,"t":27166},{"dx":248,"dy":100,"t":27193}],[{"dx":-76,"dy":-183,"t":28202},{"dx":-68,"dy":-186,"t":28231},{"dx":-10,"dy":-121,"t":28270},{"dx":72,"dy":-100,"t":28301},{"dx":84,"dy":-95,"t":28339},{"dx":57,"dy":-115,"t":28369},{"dx":72,"dy":-92,"t":28407},{"dx":67,"dy":-115,"t":28436},{"dx":114,"dy":-94,"t":28477},{"dx":77,"dy":-120,"t":28507},{"dx":35,"dy":-173,"t":28548},{"dx":-9,"dy":-199,"t":28577},{"dx":-46,"dy":-156,"t":28617},{"dx":-72,"dy":-150,"t":28649},{"dx":-45,"dy":-70,"t":28687},{"dx":-36,"dy":-26,"t":28720},{"dx":-9,"dy":10,"t":28760},{"dx":15,"dy":20,"t":28790},{"dx":85,"dy":28,"t":28831},{"dx":114,"dy":35,"t":28862},{"dx":142,"dy":43,"t":28899},{"dx":179,"dy":55,"t":28927},{"dx":92,"dy":44,"t":28969},{"dx":77,"dy":17,"t":28997},{"dx":56,"dy":34,"t":29037},{"dx":42,"dy":31,"t":29065},{"dx":14,"dy":15,"t":29102},{"dx":6,"dy":8,"t":29132},{"dx":3,"dy":15,"t":29175},{"dx":-15,"dy":17,"t":29207},{"dx":-34,"dy":9,"t":29247},{"dx":-40,"dy":-5,"t":29279},{"dx":-106,"dy":-65,"t":29319},{"dx":-86,"dy":-89,"t":29350},{"dx":-94,"dy":-50,"t":29390},{"dx":-126,"dy":-57,"t":29420},{"dx":-62,"dy":-18,"t":29460},{"dx":-47,"dy":3,"t":29490},{"dx":-32,"dy":-15,"t":29529},{"dx":-33,"dy":-19,"t":29559},{"dx":2,"dy":29,"t":29604},{"dx":18,"dy":33,"t":29634},{"dx":17,"dy":31,"t":29673},{"dx":4,"dy":2,"t":29701},{"dx":32,"dy":-21,"t":29738},{"dx":48,"dy":-36,"t":29768},{"dx":30,"dy":-43,"t":29810},{"dx":19,"dy":-38,"t":29839},{"dx":-47,"dy":-6,"t":29880},{"dx":-47,"dy":-22,"t":29919},{"dx":-71,"dy":-48,"t":29964},{"dx":-98,"dy":-86,"t":29994},{"dx":-108,"dy":-110,"t":30036},{"dx":-139,"dy":-139,"t":30067},{"dx":-148,"dy":-124,"t":30110},{"dx":-118,"dy":-106,"t":30140},{"dx":-134,"dy":-49,"t":30181},{"dx":-150,"dy":-83,"t":30196}],[{"dx":294,"dy":-35,"t":31484},{"dx":303,"dy":-39,"t":31514},{"dx":338,"dy":-4,"t":31554},{"dx":357,"dy":10,"t":31585},{"dx":324,"dy":-58,"t":31625},{"dx":305,"dy":-114,"t":31655},{"dx":316,"dy":-81,"t":31697},{"dx":307,"dy":-69,"t":31729},{"dx":301,"dy":-43,"t":31767},{"dx":306,"dy":-30,"t":31796},{"dx":325,"dy":-13,"t":31838},{"dx":316,"dy":2,"t":31867},{"dx":286,"dy":20,"t":31906},{"dx":291,"dy":48,"t":31935},{"dx":330,"dy":112,"t":31974},{"dx":365,"dy":149,"t":32002},{"dx":429,"dy":192,"t":32043},{"dx":454,"dy":211,"t":32073},{"dx":484,"dy":265,"t":32111},{"dx":480,"dy":279,"t":32141},{"dx":466,"dy":270,"t":32182},{"dx":456,"dy":257,"t":32211},{"dx":412,"dy":198,"t":32254},{"dx":374,"dy":157,"t":32287},{"dx":331,"dy":105,"t":32329},{"dx":311,"dy":94,"t":32358},{"dx":318,"dy":75,"t":32396},{"dx":339,"dy":69,"t":32426},{"dx":329,"dy":57,"t":32468},{"dx":324,"dy":38,"t":32498},{"dx":314,"dy":27,"t":32536},{"dx":298,"dy":29,"t":32565},{"dx":318,"dy":32,"t":32605},{"dx":285,"dy":25,"t":32636},{"dx":288,"dy":16,"t":32677},{"dx":278,"dy":15,"t":32706},{"dx":264,"dy":22,"t":32749},{"dx":249,"dy":21,"t":32782},{"dx":252,"dy":6,"t":32826},{"dx":249,"dy":-10,"t":32860},{"dx":214,"dy":-33,"t":32936},{"dx":218,"dy":-55,"t":32969},{"dx":210,"dy":-68,"t":33012},{"dx":212,"dy":-70,"t":33042},{"dx":213,"dy":-70,"t":33082},{"dx":212,"dy":-70,"t":33114},{"dx":196,"dy":-81,"t":33154},{"dx":183,"dy":-92,"t":33187},{"dx":214,"dy":-92,"t":33215}],[{"dx":-121,"dy":21,"t":34194},{"dx":-97,"dy":89,"t":34255},{"dx":-81,"dy":124,"t":34284},{"dx":-133,"dy":119,"t":34322},{"dx":-144,"dy":121,"t":34352},{"dx":-113,"dy":143,"t":34393},{"dx":-79,"dy":160,"t":34421},{"dx":-113,"dy":81,"t":34459},{"dx":-139,"dy":50,"t":34489},{"dx":-143,"dy":56,"t":34527},{"dx":-122,"dy":93,"t":34556},{"dx":-72,"dy":242,"t":34596},{"dx":-61,"dy":330,"t":34625},{"dx":-64,"dy":535,"t":34662},{"dx":-65,"dy":609,"t":34691},{"dx":-64,"dy":680,"t":34732},{"dx":-62,"dy":686,"t":34760},{"dx":-104,"dy":591,"t":34799},{"dx":-120,"dy":516,"t":34831},{"dx":-159,"dy":353,"t":34875},{"dx":-165,"dy":277,"t":34906},{"dx":-193,"dy":131,"t":34946},{"dx":-212,"dy":75,"t":34976},{"dx":-221,"dy":-8,"t":35016},{"dx":-223,"dy":-42,"t":35046},{"dx":-201,"dy":-58,"t":35084},{"dx":-185,"dy":-65,"t":35116},{"dx":-123,"dy":-74,"t":35160},{"dx":-94,"dy":-75,"t":35191},{"dx":-60,"dy":-38,"t":35231},{"dx":-53,"dy":-5,"t":35263},{"dx":-77,"dy":-20,"t":35302},{"dx":-68,"dy":-40,"t":35331},{"dx":-79,"dy":-48,"t":35382},{"dx":-99,"dy":-25,"t":35413},{"dx":-99,"dy":-27,"t":35456},{"dx":-106,"dy":-21,"t":35485},{"dx":-104,"dy":-44,"t":35524},{"dx":-107,"dy":-55,"t":35553},{"dx":-98,"dy":-49,"t":35592},{"dx":-100,"dy":-48,"t":35622},{"dx":-110,"dy":-45,"t":35663},{"dx":-113,"dy":-51,"t":35691},{"dx":-120,"dy":-54,"t":35731},{"dx":-123,"dy":-51,"t":35763},{"dx":-155,"dy":-71,"t":35803},{"dx":-122,"dy":-66,"t":35835},{"dx":-119,"dy":-64,"t":35879},{"dx":-110,"dy":-58,"t":35908},{"dx":-119,"dy":-48,"t":35950},{"dx":-123,"dy":-45,"t":35979},{"dx":-148,"dy":-49,"t":36016},{"dx":-166,"dy":-55,"t":36045},{"dx":-189,"dy":-55,"t":36086},{"dx":-189,"dy":-51,"t":36113},{"dx":-180,"dy":-36,"t":36166},{"dx":-156,"dy":-38,"t":36227},{"dx":-127,"dy":-45,"t":36254}],[{"dx":-52,"dy":147,"t":37272},{"dx":-45,"dy":135,"t":37301},{"dx":-86,"dy":153,"t":37339},{"dx":-101,"dy":142,"t":37366},{"dx":-113,"dy":134,"t":37405},{"dx":-121,"dy":126,"t":37434},{"dx":-97,"dy":119,"t":37474},{"dx":-102,"dy":117,"t":37500},{"dx":-132,"dy":137,"t":37539},{"dx":-157,"dy":146,"t":37567},{"dx":-210,"dy":287,"t":37605},{"dx":-244,"dy":390,"t":37632},{"dx":-304,"dy":596,"t":37671},{"dx":-313,"dy":666,"t":37699},{"dx":-337,"dy":719,"t":37740},{"dx":-349,"dy":713,"t":37767},{"dx":-361,"dy":561,"t":37805},{"dx":-350,"dy":455,"t":37834},{"dx":-250,"dy":315,"t":37871},{"dx":-213,"dy":280,"t":37900},{"dx":-181,"dy":189,"t":37938},{"dx":-170,"dy":159,"t":37972},{"dx":-152,"dy":119,"t":38013},{"dx":-147,"dy":105,"t":38041},{"dx":-119,"dy":89,"t":38085},{"dx":-105,"dy":87,"t":38113},{"dx":-104,"dy":95,"t":38155},{"dx":-104,"dy":101,"t":38182},{"dx":-117,"dy":143,"t":38221},{"dx":-118,"dy":172,"t":38246},{"dx":-138,"dy":206,"t":38287},{"dx":-144,"dy":213,"t":38313},{"dx":-142,"dy":197,"t":38352},{"dx":-147,"dy":181,"t":38379},{"dx":-136,"dy":179,"t":38418},{"dx":-134,"dy":193,"t":38449},{"dx":-160,"dy":187,"t":38502},{"dx":-167,"dy":195,"t":38530},{"dx":-178,"dy":187,"t":38569},{"dx":-178,"dy":191,"t":38596},{"dx":-180,"dy":201,"t":38633},{"dx":-182,"dy":207,"t":38660},{"dx":-86,"dy":191,"t":38699},{"dx":-29,"dy":175,"t":38726},{"dx":16,"dy":143,"t":38764},{"dx":20,"dy":140,"t":38793},{"dx":8,"dy":133,"t":38832},{"dx":1,"dy":132,"t":38859},{"dx":-9,"dy":126,"t":38899},{"dx":-12,"dy":123,"t":38927},{"dx":-71,"dy":145,"t":38966},{"dx":-90,"dy":155,"t":38993},{"dx":-129,"dy":154,"t":39031},{"dx":-149,"dy":145,"t":39061},{"dx":-105,"dy":120,"t":39102},{"dx":-81,"dy":113,"t":39133},{"dx":-120,"dy":121,"t":39173},{"dx":-131,"dy":129,"t":39202}]],"percent_in_roi":[57.6271186440678,51.66666666666667,0,0,0,0,1.694915254237288,0,0,79.3103448275862,0,50,20.689655172413794],"average_offset":[{"x":-73.08474576271186,"y":-37.33898305084746,"r":83.7302168276013},{"x":214.53333333333333,"y":31.733333333333334,"r":219.1015153217526},{"x":708.3559322033898,"y":-190.94915254237287,"r":161.5357245012586},{"x":345.45762711864404,"y":398.1694915254237,"r":81.2386159792749},{"x":174.67796610169492,"y":278.6101694915254,"r":68.00050906411678},{"x":-513.4406779661017,"y":-95.96610169491525,"r":59.633701855681856},{"x":-203.96610169491527,"y":295.08474576271186,"r":102.086743733913},{"x":83.83333333333333,"y":201.58333333333334,"r":85.59404908065338},{"x":363.7894736842105,"y":115.17543859649123,"r":98.07455816714088},{"x":-9.189655172413794,"y":-47.327586206896555,"r":139.45380165861678},{"x":310.9795918367347,"y":34.16326530612245,"r":76.10429558669595},{"x":-122.27586206896552,"y":76.86206896551724,"r":192.4300752407714},{"x":-139.77586206896552,"y":209.98275862068965,"r":139.11010763919722}],"samples_per_sec":"28.81","clicks":15,"pattern":"cond","trial_type":"webgazer-validate","trial_index":19,"time_elapsed":165336,"internal_node_id":"0.0-10.0-3.1","validation_points":[[75,75],[25,75],[15,85],[25,25],[37.5,37.5],[85,85],[62.5,37.5],[50,50],[15,15],[62.5,62.5],[37.5,62.5],[75,25],[85,15]],"user_agent":"Mozilla/5.0 (Windows NT 10.0; Win64; x64) AppleWebKit/537.36 (KHTML, like Gecko) Chrome/88.0.4324.190 Safari/537.36","screen_width_px":1920,"screen_height_px":1080},{"rt":2238.9750000147615,"stimulus":"\n      <p>Round complete.</p>\n      <p>You can move a little bit, but please try to return you head to the same general location before continuing.</p>\n    ","response":0,"trial_type":"html-button-response","trial_index":20,"time_elapsed":167577,"internal_node_id":"0.0-10.0-4.1","user_agent":"Mozilla/5.0 (Windows NT 10.0; Win64; x64) AppleWebKit/537.36 (KHTML, like Gecko) Chrome/88.0.4324.190 Safari/537.36","screen_width_px":1920,"screen_height_px":1080},{"trial_type":"webgazer-init-camera","trial_index":21,"time_elapsed":169852,"internal_node_id":"0.0-10.0-5.1","user_agent":"Mozilla/5.0 (Windows NT 10.0; Win64; x64) AppleWebKit/537.36 (KHTML, like Gecko) Chrome/88.0.4324.190 Safari/537.36","screen_width_px":1920,"screen_height_px":1080},{"rt":664.1299999901094,"stimulus":"\n      <p>Calibration phase next.</p>\n      <p>Click on the dots.</p>\n    ","response":0,"trial_type":"html-button-response","trial_index":22,"time_elapsed":170518,"internal_node_id":"0.0-10.0-0.2","user_agent":"Mozilla/5.0 (Windows NT 10.0; Win64; x64) AppleWebKit/537.36 (KHTML, like Gecko) Chrome/88.0.4324.190 Safari/537.36","screen_width_px":1920,"screen_height_px":1080},{"trial_type":"webgazer-calibrate","trial_index":23,"time_elapsed":186723,"internal_node_id":"0.0-10.0-1.2","user_agent":"Mozilla/5.0 (Windows NT 10.0; Win64; x64) AppleWebKit/537.36 (KHTML, like Gecko) Chrome/88.0.4324.190 Safari/537.36","screen_width_px":1920,"screen_height_px":1080},{"rt":1169.335000013234,"stimulus":"\n      <p>Validation phase next.</p>\n      <p>Look at the dots.</p>\n    ","response":0,"trial_type":"html-button-response","trial_index":24,"time_elapsed":187894,"internal_node_id":"0.0-10.0-2.2","user_agent":"Mozilla/5.0 (Windows NT 10.0; Win64; x64) AppleWebKit/537.36 (KHTML, like Gecko) Chrome/88.0.4324.190 Safari/537.36","screen_width_px":1920,"screen_height_px":1080},{"raw_gaze":[[{"dx":31,"dy":23,"t":1043},{"dx":18,"dy":41,"t":1108},{"dx":30,"dy":76,"t":1141},{"dx":35,"dy":49,"t":1184},{"dx":29,"dy":52,"t":1214},{"dx":50,"dy":48,"t":1255},{"dx":69,"dy":31,"t":1284},{"dx":17,"dy":-3,"t":1323},{"dx":-7,"dy":-16,"t":1351},{"dx":-58,"dy":-24,"t":1395},{"dx":-81,"dy":-28,"t":1421},{"dx":-83,"dy":-15,"t":1460},{"dx":-65,"dy":-9,"t":1486},{"dx":-61,"dy":4,"t":1524},{"dx":-57,"dy":9,"t":1551},{"dx":-1,"dy":17,"t":1590},{"dx":37,"dy":21,"t":1618},{"dx":35,"dy":12,"t":1657},{"dx":22,"dy":7,"t":1684},{"dx":-8,"dy":19,"t":1725},{"dx":-16,"dy":28,"t":1755},{"dx":-28,"dy":23,"t":1795},{"dx":-39,"dy":10,"t":1822},{"dx":-28,"dy":-14,"t":1862},{"dx":-14,"dy":-24,"t":1889},{"dx":21,"dy":-21,"t":1930},{"dx":39,"dy":-2,"t":1958},{"dx":60,"dy":-7,"t":1998},{"dx":63,"dy":-5,"t":2027},{"dx":65,"dy":-32,"t":2066},{"dx":43,"dy":-55,"t":2094},{"dx":35,"dy":-27,"t":2133},{"dx":30,"dy":-20,"t":2161},{"dx":34,"dy":-10,"t":2199},{"dx":47,"dy":-2,"t":2229},{"dx":54,"dy":-7,"t":2279},{"dx":37,"dy":14,"t":2309},{"dx":-11,"dy":52,"t":2346},{"dx":-39,"dy":67,"t":2374},{"dx":-38,"dy":24,"t":2414},{"dx":7,"dy":4,"t":2443},{"dx":11,"dy":3,"t":2480},{"dx":27,"dy":21,"t":2511},{"dx":11,"dy":-3,"t":2550},{"dx":14,"dy":-8,"t":2577},{"dx":33,"dy":6,"t":2615},{"dx":29,"dy":3,"t":2642},{"dx":47,"dy":27,"t":2680},{"dx":48,"dy":41,"t":2709},{"dx":3,"dy":51,"t":2747},{"dx":-14,"dy":47,"t":2776},{"dx":-17,"dy":28,"t":2815},{"dx":-22,"dy":5,"t":2845},{"dx":-22,"dy":-24,"t":2883},{"dx":-8,"dy":-38,"t":2913},{"dx":32,"dy":-45,"t":2957},{"dx":45,"dy":-38,"t":2984},{"dx":27,"dy":7,"t":3026},{"dx":26,"dy":27,"t":3056},{"dx":10,"dy":53,"t":3082}],[{"dx":-147,"dy":3,"t":4095},{"dx":-151,"dy":5,"t":4126},{"dx":-169,"dy":33,"t":4167},{"dx":-179,"dy":53,"t":4195},{"dx":-166,"dy":62,"t":4238},{"dx":-147,"dy":55,"t":4268},{"dx":-134,"dy":27,"t":4309},{"dx":-129,"dy":16,"t":4339},{"dx":-147,"dy":33,"t":4384},{"dx":-165,"dy":55,"t":4412},{"dx":-167,"dy":63,"t":4451},{"dx":-174,"dy":77,"t":4481},{"dx":-179,"dy":77,"t":4525},{"dx":-177,"dy":72,"t":4554},{"dx":-155,"dy":81,"t":4594},{"dx":-153,"dy":84,"t":4622},{"dx":-126,"dy":104,"t":4662},{"dx":-132,"dy":115,"t":4692},{"dx":-141,"dy":123,"t":4734},{"dx":-148,"dy":132,"t":4764},{"dx":-137,"dy":166,"t":4802},{"dx":-137,"dy":184,"t":4833},{"dx":-140,"dy":133,"t":4871},{"dx":-147,"dy":104,"t":4900},{"dx":-179,"dy":71,"t":4939},{"dx":-191,"dy":70,"t":4969},{"dx":-196,"dy":73,"t":5007},{"dx":-194,"dy":49,"t":5038},{"dx":-203,"dy":60,"t":5083},{"dx":-213,"dy":80,"t":5135},{"dx":-151,"dy":103,"t":5173},{"dx":-115,"dy":100,"t":5201},{"dx":-64,"dy":76,"t":5239},{"dx":-81,"dy":72,"t":5268},{"dx":-70,"dy":31,"t":5307},{"dx":-77,"dy":16,"t":5334},{"dx":-89,"dy":9,"t":5373},{"dx":-100,"dy":-6,"t":5402},{"dx":-139,"dy":3,"t":5442},{"dx":-139,"dy":25,"t":5470},{"dx":-125,"dy":24,"t":5513},{"dx":-135,"dy":9,"t":5539},{"dx":-114,"dy":15,"t":5578},{"dx":-118,"dy":12,"t":5604},{"dx":-107,"dy":47,"t":5642},{"dx":-103,"dy":66,"t":5671},{"dx":-93,"dy":83,"t":5710},{"dx":-91,"dy":94,"t":5737},{"dx":-81,"dy":114,"t":5776},{"dx":-74,"dy":122,"t":5804},{"dx":-77,"dy":99,"t":5843},{"dx":-60,"dy":101,"t":5870},{"dx":-77,"dy":118,"t":5909},{"dx":-112,"dy":127,"t":5940},{"dx":-117,"dy":95,"t":5980},{"dx":-105,"dy":95,"t":6008},{"dx":-120,"dy":90,"t":6046},{"dx":-138,"dy":102,"t":6077},{"dx":-144,"dy":117,"t":6106}],[{"dx":39,"dy":53,"t":7092},{"dx":65,"dy":75,"t":7154},{"dx":71,"dy":98,"t":7182},{"dx":69,"dy":91,"t":7224},{"dx":49,"dy":85,"t":7253},{"dx":66,"dy":81,"t":7292},{"dx":69,"dy":84,"t":7321},{"dx":81,"dy":91,"t":7359},{"dx":62,"dy":94,"t":7388},{"dx":124,"dy":89,"t":7426},{"dx":118,"dy":91,"t":7455},{"dx":163,"dy":88,"t":7493},{"dx":182,"dy":96,"t":7523},{"dx":218,"dy":98,"t":7560},{"dx":249,"dy":100,"t":7590},{"dx":276,"dy":92,"t":7629},{"dx":242,"dy":87,"t":7656},{"dx":188,"dy":82,"t":7694},{"dx":204,"dy":104,"t":7723},{"dx":174,"dy":106,"t":7760},{"dx":160,"dy":104,"t":7789},{"dx":150,"dy":96,"t":7828},{"dx":169,"dy":101,"t":7858},{"dx":154,"dy":79,"t":7895},{"dx":115,"dy":75,"t":7923},{"dx":75,"dy":71,"t":7962},{"dx":86,"dy":83,"t":7992},{"dx":106,"dy":89,"t":8029},{"dx":163,"dy":93,"t":8057},{"dx":194,"dy":91,"t":8096},{"dx":196,"dy":93,"t":8124},{"dx":219,"dy":99,"t":8162},{"dx":195,"dy":99,"t":8190},{"dx":229,"dy":108,"t":8233},{"dx":242,"dy":115,"t":8262},{"dx":210,"dy":121,"t":8579},{"dx":187,"dy":100,"t":8609},{"dx":137,"dy":88,"t":8647},{"dx":128,"dy":77,"t":8673},{"dx":122,"dy":70,"t":8711},{"dx":130,"dy":85,"t":8737},{"dx":159,"dy":96,"t":8774},{"dx":165,"dy":114,"t":8802},{"dx":182,"dy":139,"t":8839},{"dx":186,"dy":132,"t":8867},{"dx":195,"dy":129,"t":8906},{"dx":228,"dy":127,"t":8938},{"dx":222,"dy":121,"t":8980},{"dx":219,"dy":118,"t":9008},{"dx":227,"dy":99,"t":9047},{"dx":236,"dy":98,"t":9077},{"dx":165,"dy":98,"t":9121},{"dx":125,"dy":83,"t":9134}],[{"dx":203,"dy":34,"t":10144},{"dx":189,"dy":30,"t":10172},{"dx":170,"dy":30,"t":10212},{"dx":154,"dy":24,"t":10241},{"dx":112,"dy":29,"t":10279},{"dx":88,"dy":37,"t":10309},{"dx":60,"dy":34,"t":10350},{"dx":44,"dy":21,"t":10381},{"dx":49,"dy":5,"t":10419},{"dx":63,"dy":6,"t":10445},{"dx":95,"dy":8,"t":10484},{"dx":102,"dy":5,"t":10513},{"dx":138,"dy":8,"t":10553},{"dx":139,"dy":13,"t":10581},{"dx":158,"dy":5,"t":10624},{"dx":167,"dy":11,"t":10652},{"dx":124,"dy":25,"t":10692},{"dx":131,"dy":30,"t":10721},{"dx":87,"dy":37,"t":10759},{"dx":66,"dy":43,"t":10788},{"dx":91,"dy":43,"t":10828},{"dx":122,"dy":53,"t":10857},{"dx":148,"dy":24,"t":10895},{"dx":158,"dy":8,"t":10923},{"dx":174,"dy":-41,"t":10962},{"dx":188,"dy":-73,"t":10991},{"dx":132,"dy":-93,"t":11044},{"dx":105,"dy":-79,"t":11091},{"dx":66,"dy":-53,"t":11130},{"dx":63,"dy":-42,"t":11160},{"dx":46,"dy":-38,"t":11200},{"dx":58,"dy":-49,"t":11231},{"dx":56,"dy":-42,"t":11271},{"dx":59,"dy":-46,"t":11300},{"dx":82,"dy":-46,"t":11339},{"dx":75,"dy":-41,"t":11366},{"dx":80,"dy":-56,"t":11406},{"dx":86,"dy":-43,"t":11435},{"dx":138,"dy":-25,"t":11473},{"dx":145,"dy":-9,"t":11502},{"dx":53,"dy":9,"t":11545},{"dx":17,"dy":15,"t":11575},{"dx":-9,"dy":5,"t":11617},{"dx":-4,"dy":-7,"t":11646},{"dx":45,"dy":-11,"t":11689},{"dx":66,"dy":-21,"t":11720},{"dx":48,"dy":-3,"t":11759},{"dx":27,"dy":14,"t":11788},{"dx":31,"dy":-1,"t":11827},{"dx":44,"dy":-26,"t":11856},{"dx":80,"dy":-44,"t":11896},{"dx":96,"dy":-38,"t":11924},{"dx":118,"dy":-42,"t":11966},{"dx":120,"dy":-50,"t":11993},{"dx":148,"dy":-46,"t":12033},{"dx":154,"dy":-37,"t":12062},{"dx":138,"dy":-26,"t":12103},{"dx":123,"dy":-22,"t":12129},{"dx":164,"dy":-26,"t":12153}],[{"dx":0,"dy":73,"t":13170},{"dx":2,"dy":68,"t":13198},{"dx":-100,"dy":40,"t":13238},{"dx":-152,"dy":30,"t":13267},{"dx":-127,"dy":21,"t":13306},{"dx":-105,"dy":18,"t":13335},{"dx":13,"dy":43,"t":13373},{"dx":53,"dy":61,"t":13400},{"dx":-5,"dy":77,"t":13439},{"dx":-44,"dy":84,"t":13467},{"dx":-34,"dy":100,"t":13505},{"dx":-22,"dy":114,"t":13538},{"dx":-39,"dy":132,"t":13580},{"dx":-62,"dy":138,"t":13608},{"dx":-63,"dy":122,"t":13649},{"dx":-69,"dy":113,"t":13677},{"dx":-14,"dy":90,"t":13717},{"dx":38,"dy":86,"t":13744},{"dx":51,"dy":60,"t":13783},{"dx":61,"dy":52,"t":13812},{"dx":-13,"dy":3,"t":13851},{"dx":-13,"dy":-15,"t":13881},{"dx":-115,"dy":-9,"t":13919},{"dx":-126,"dy":4,"t":13950},{"dx":-73,"dy":17,"t":13989},{"dx":-49,"dy":24,"t":14018},{"dx":-67,"dy":24,"t":14058},{"dx":-89,"dy":23,"t":14087},{"dx":-157,"dy":51,"t":14134},{"dx":-178,"dy":41,"t":14164},{"dx":-144,"dy":31,"t":14206},{"dx":-143,"dy":36,"t":14235},{"dx":-41,"dy":49,"t":14278},{"dx":-12,"dy":78,"t":14307},{"dx":-83,"dy":67,"t":14347},{"dx":-135,"dy":63,"t":14378},{"dx":-158,"dy":24,"t":14430},{"dx":-165,"dy":8,"t":14460},{"dx":-160,"dy":-17,"t":14506},{"dx":-150,"dy":-27,"t":14538},{"dx":-68,"dy":-36,"t":14577},{"dx":-59,"dy":-30,"t":14609},{"dx":-118,"dy":-26,"t":14652},{"dx":-148,"dy":-29,"t":14681},{"dx":-140,"dy":-14,"t":14720},{"dx":-129,"dy":10,"t":14751},{"dx":-137,"dy":16,"t":14789},{"dx":-149,"dy":26,"t":14817},{"dx":-102,"dy":41,"t":14855},{"dx":-83,"dy":51,"t":14886},{"dx":-78,"dy":23,"t":14927},{"dx":-36,"dy":8,"t":14955},{"dx":-31,"dy":-6,"t":14997},{"dx":-41,"dy":-6,"t":15028},{"dx":-39,"dy":1,"t":15066},{"dx":-43,"dy":6,"t":15096},{"dx":-30,"dy":19,"t":15134},{"dx":-15,"dy":24,"t":15164},{"dx":-53,"dy":15,"t":15190}],[{"dx":45,"dy":-80,"t":16180},{"dx":68,"dy":-62,"t":16241},{"dx":79,"dy":-50,"t":16273},{"dx":98,"dy":-69,"t":16311},{"dx":115,"dy":-72,"t":16339},{"dx":110,"dy":-60,"t":16379},{"dx":114,"dy":-62,"t":16406},{"dx":130,"dy":-80,"t":16448},{"dx":140,"dy":-93,"t":16475},{"dx":137,"dy":-122,"t":16515},{"dx":122,"dy":-138,"t":16543},{"dx":124,"dy":-128,"t":16583},{"dx":139,"dy":-109,"t":16610},{"dx":128,"dy":-86,"t":16649},{"dx":97,"dy":-80,"t":16678},{"dx":154,"dy":-99,"t":16726},{"dx":178,"dy":-110,"t":16789},{"dx":206,"dy":-88,"t":16836},{"dx":218,"dy":-83,"t":16865},{"dx":258,"dy":-83,"t":16906},{"dx":265,"dy":-85,"t":16936},{"dx":271,"dy":-86,"t":16977},{"dx":270,"dy":-85,"t":17004},{"dx":268,"dy":-82,"t":17046},{"dx":266,"dy":-80,"t":17074},{"dx":184,"dy":-84,"t":17117},{"dx":143,"dy":-86,"t":17148},{"dx":184,"dy":-76,"t":17186},{"dx":203,"dy":-74,"t":17215},{"dx":201,"dy":-85,"t":17255},{"dx":224,"dy":-99,"t":17284},{"dx":195,"dy":-112,"t":17324},{"dx":189,"dy":-116,"t":17352},{"dx":160,"dy":-155,"t":17390},{"dx":156,"dy":-168,"t":17419},{"dx":200,"dy":-145,"t":17457},{"dx":206,"dy":-137,"t":17484},{"dx":227,"dy":-122,"t":17526},{"dx":241,"dy":-116,"t":17553},{"dx":250,"dy":-110,"t":17594},{"dx":247,"dy":-110,"t":17621},{"dx":241,"dy":-95,"t":17657},{"dx":238,"dy":-83,"t":17685},{"dx":215,"dy":-106,"t":17723},{"dx":198,"dy":-134,"t":17750},{"dx":192,"dy":-144,"t":17791},{"dx":193,"dy":-155,"t":17821},{"dx":236,"dy":-146,"t":17862},{"dx":225,"dy":-141,"t":17891},{"dx":226,"dy":-125,"t":17932},{"dx":235,"dy":-114,"t":17961},{"dx":276,"dy":-94,"t":17999},{"dx":305,"dy":-85,"t":18029},{"dx":358,"dy":-85,"t":18068},{"dx":382,"dy":-91,"t":18096},{"dx":361,"dy":-94,"t":18133},{"dx":347,"dy":-90,"t":18163},{"dx":345,"dy":-89,"t":18202},{"dx":349,"dy":-94,"t":18214}],[{"dx":185,"dy":154,"t":19220},{"dx":161,"dy":136,"t":19279},{"dx":123,"dy":138,"t":19310},{"dx":69,"dy":92,"t":19351},{"dx":47,"dy":76,"t":19380},{"dx":49,"dy":86,"t":19419},{"dx":45,"dy":97,"t":19447},{"dx":118,"dy":95,"t":19491},{"dx":153,"dy":89,"t":19524},{"dx":177,"dy":101,"t":19566},{"dx":140,"dy":120,"t":19595},{"dx":68,"dy":137,"t":19637},{"dx":35,"dy":138,"t":19665},{"dx":31,"dy":124,"t":19706},{"dx":27,"dy":128,"t":19737},{"dx":67,"dy":111,"t":19777},{"dx":95,"dy":99,"t":19804},{"dx":141,"dy":46,"t":19843},{"dx":153,"dy":25,"t":19871},{"dx":149,"dy":2,"t":19910},{"dx":137,"dy":-2,"t":19939},{"dx":103,"dy":27,"t":19979},{"dx":90,"dy":42,"t":20006},{"dx":49,"dy":76,"t":20046},{"dx":42,"dy":88,"t":20074},{"dx":77,"dy":105,"t":20118},{"dx":91,"dy":108,"t":20146},{"dx":112,"dy":141,"t":20186},{"dx":119,"dy":166,"t":20216},{"dx":54,"dy":192,"t":20253},{"dx":40,"dy":205,"t":20282},{"dx":6,"dy":173,"t":20593},{"dx":-12,"dy":137,"t":20622},{"dx":-23,"dy":98,"t":20665},{"dx":-34,"dy":95,"t":20696},{"dx":-13,"dy":58,"t":20734},{"dx":-18,"dy":40,"t":20763},{"dx":-15,"dy":19,"t":20802},{"dx":35,"dy":-2,"t":20831},{"dx":157,"dy":-5,"t":20870},{"dx":187,"dy":16,"t":20898},{"dx":189,"dy":84,"t":20936},{"dx":187,"dy":110,"t":20964},{"dx":157,"dy":128,"t":21005},{"dx":147,"dy":131,"t":21035},{"dx":168,"dy":79,"t":21076},{"dx":168,"dy":61,"t":21105},{"dx":73,"dy":72,"t":21145},{"dx":39,"dy":78,"t":21175},{"dx":5,"dy":93,"t":21213},{"dx":3,"dy":102,"t":21226}],[{"dx":-67,"dy":85,"t":22252},{"dx":-89,"dy":85,"t":22282},{"dx":-66,"dy":75,"t":22325},{"dx":-36,"dy":69,"t":22354},{"dx":3,"dy":59,"t":22393},{"dx":14,"dy":54,"t":22419},{"dx":29,"dy":56,"t":22455},{"dx":34,"dy":62,"t":22483},{"dx":38,"dy":65,"t":22523},{"dx":23,"dy":70,"t":22550},{"dx":-29,"dy":83,"t":22590},{"dx":-34,"dy":95,"t":22617},{"dx":-74,"dy":109,"t":22654},{"dx":-56,"dy":93,"t":22682},{"dx":-69,"dy":91,"t":22722},{"dx":-78,"dy":88,"t":22779},{"dx":-47,"dy":124,"t":22819},{"dx":-39,"dy":144,"t":22848},{"dx":-90,"dy":150,"t":22886},{"dx":-108,"dy":150,"t":22914},{"dx":-79,"dy":144,"t":22954},{"dx":-67,"dy":137,"t":22982},{"dx":-82,"dy":126,"t":23024},{"dx":-103,"dy":120,"t":23053},{"dx":-109,"dy":112,"t":23092},{"dx":-97,"dy":108,"t":23123},{"dx":-71,"dy":84,"t":23162},{"dx":-95,"dy":71,"t":23189},{"dx":-41,"dy":52,"t":23228},{"dx":-35,"dy":55,"t":23257},{"dx":-40,"dy":74,"t":23294},{"dx":-15,"dy":70,"t":23322},{"dx":-42,"dy":78,"t":23361},{"dx":-50,"dy":83,"t":23390},{"dx":-33,"dy":96,"t":23428},{"dx":-17,"dy":115,"t":23455},{"dx":5,"dy":84,"t":23492},{"dx":27,"dy":73,"t":23521},{"dx":33,"dy":72,"t":23559},{"dx":28,"dy":65,"t":23587},{"dx":-4,"dy":42,"t":23626},{"dx":-15,"dy":32,"t":23656},{"dx":-39,"dy":56,"t":23693},{"dx":-30,"dy":79,"t":23721},{"dx":-14,"dy":84,"t":23758},{"dx":-5,"dy":110,"t":23788},{"dx":-41,"dy":86,"t":23826},{"dx":-63,"dy":68,"t":23853},{"dx":-56,"dy":86,"t":23892},{"dx":-51,"dy":91,"t":23921},{"dx":-67,"dy":101,"t":23958},{"dx":-63,"dy":97,"t":23988},{"dx":-52,"dy":140,"t":24026},{"dx":-50,"dy":149,"t":24056},{"dx":-63,"dy":139,"t":24092},{"dx":-96,"dy":122,"t":24121},{"dx":-87,"dy":146,"t":24164},{"dx":-80,"dy":157,"t":24194},{"dx":-32,"dy":152,"t":24233},{"dx":-8,"dy":158,"t":24244}],[{"dx":199,"dy":249,"t":25278},{"dx":157,"dy":225,"t":25308},{"dx":140,"dy":169,"t":25345},{"dx":157,"dy":139,"t":25373},{"dx":201,"dy":104,"t":25412},{"dx":186,"dy":94,"t":25441},{"dx":186,"dy":91,"t":25480},{"dx":199,"dy":98,"t":25511},{"dx":246,"dy":100,"t":25550},{"dx":332,"dy":98,"t":25577},{"dx":319,"dy":96,"t":25615},{"dx":346,"dy":108,"t":25643},{"dx":297,"dy":108,"t":25683},{"dx":271,"dy":116,"t":25710},{"dx":246,"dy":101,"t":25749},{"dx":304,"dy":85,"t":25776},{"dx":298,"dy":86,"t":25816},{"dx":364,"dy":87,"t":25845},{"dx":344,"dy":70,"t":25885},{"dx":371,"dy":68,"t":25913},{"dx":297,"dy":96,"t":25956},{"dx":272,"dy":81,"t":25983},{"dx":202,"dy":110,"t":26025},{"dx":172,"dy":113,"t":26054},{"dx":140,"dy":129,"t":26093},{"dx":148,"dy":120,"t":26122},{"dx":130,"dy":133,"t":26159},{"dx":138,"dy":113,"t":26188},{"dx":77,"dy":150,"t":26225},{"dx":47,"dy":178,"t":26254},{"dx":49,"dy":159,"t":26295},{"dx":66,"dy":141,"t":26324},{"dx":137,"dy":145,"t":26362},{"dx":165,"dy":143,"t":26390},{"dx":186,"dy":145,"t":26428},{"dx":164,"dy":143,"t":26457},{"dx":156,"dy":144,"t":26499},{"dx":180,"dy":134,"t":26528},{"dx":60,"dy":150,"t":26568},{"dx":30,"dy":178,"t":26596},{"dx":14,"dy":168,"t":26637},{"dx":3,"dy":154,"t":26666},{"dx":104,"dy":145,"t":26706},{"dx":145,"dy":148,"t":26734},{"dx":66,"dy":145,"t":26773},{"dx":47,"dy":120,"t":26803},{"dx":119,"dy":122,"t":26842},{"dx":194,"dy":124,"t":26872},{"dx":228,"dy":130,"t":26912},{"dx":254,"dy":131,"t":26941},{"dx":233,"dy":135,"t":26980},{"dx":238,"dy":142,"t":27010},{"dx":281,"dy":147,"t":27053},{"dx":314,"dy":146,"t":27085},{"dx":292,"dy":150,"t":27126},{"dx":283,"dy":158,"t":27157},{"dx":285,"dy":157,"t":27199},{"dx":295,"dy":123,"t":27234},{"dx":281,"dy":115,"t":27263}],[{"dx":-497,"dy":4,"t":28242},{"dx":-472,"dy":-46,"t":28305},{"dx":-399,"dy":-63,"t":28334},{"dx":-321,"dy":-118,"t":28374},{"dx":-324,"dy":-133,"t":28408},{"dx":-322,"dy":-154,"t":28467},{"dx":-383,"dy":-167,"t":28514},{"dx":-260,"dy":-200,"t":28554},{"dx":-265,"dy":-223,"t":28584},{"dx":-256,"dy":-202,"t":28625},{"dx":-273,"dy":-203,"t":28655},{"dx":-250,"dy":-182,"t":28693},{"dx":-253,"dy":-159,"t":28725},{"dx":-157,"dy":-180,"t":28763},{"dx":-114,"dy":-181,"t":28794},{"dx":-100,"dy":-168,"t":28833},{"dx":-102,"dy":-159,"t":28860},{"dx":-214,"dy":-215,"t":28900},{"dx":-305,"dy":-233,"t":28928},{"dx":-357,"dy":-254,"t":28967},{"dx":-410,"dy":-257,"t":28997},{"dx":-418,"dy":-257,"t":29038},{"dx":-437,"dy":-252,"t":29070},{"dx":-491,"dy":-231,"t":29109},{"dx":-502,"dy":-218,"t":29139},{"dx":-318,"dy":-192,"t":29179},{"dx":-254,"dy":-182,"t":29205},{"dx":-155,"dy":-156,"t":29244},{"dx":-115,"dy":-166,"t":29271},{"dx":-171,"dy":-154,"t":29309},{"dx":-227,"dy":-160,"t":29337},{"dx":-273,"dy":-140,"t":29375},{"dx":-284,"dy":-139,"t":29403},{"dx":-391,"dy":-99,"t":29443},{"dx":-472,"dy":-68,"t":29474},{"dx":-511,"dy":-54,"t":29518},{"dx":-510,"dy":-40,"t":29549},{"dx":-456,"dy":-121,"t":29587},{"dx":-456,"dy":-154,"t":29617},{"dx":-443,"dy":-222,"t":29664},{"dx":-446,"dy":-251,"t":29695},{"dx":-401,"dy":-260,"t":29739},{"dx":-367,"dy":-263,"t":29766},{"dx":-267,"dy":-254,"t":29806},{"dx":-205,"dy":-250,"t":29835},{"dx":-146,"dy":-234,"t":29877},{"dx":-145,"dy":-250,"t":29908},{"dx":-218,"dy":-266,"t":29953},{"dx":-304,"dy":-272,"t":29983},{"dx":-300,"dy":-216,"t":30026},{"dx":-286,"dy":-210,"t":30056},{"dx":-440,"dy":-236,"t":30099},{"dx":-612,"dy":-272,"t":30129},{"dx":-465,"dy":-228,"t":30171},{"dx":-429,"dy":-214,"t":30198},{"dx":-242,"dy":-202,"t":30240},{"dx":-195,"dy":-196,"t":30252}],[{"dx":-256,"dy":-109,"t":31265},{"dx":-210,"dy":-116,"t":31294},{"dx":-298,"dy":-112,"t":31333},{"dx":-367,"dy":-93,"t":31362},{"dx":-374,"dy":-117,"t":31401},{"dx":-426,"dy":-154,"t":31431},{"dx":-348,"dy":-154,"t":31470},{"dx":-355,"dy":-164,"t":31501},{"dx":-387,"dy":-145,"t":31539},{"dx":-423,"dy":-133,"t":31567},{"dx":-398,"dy":-34,"t":31606},{"dx":-429,"dy":23,"t":31643},{"dx":-382,"dy":43,"t":31685},{"dx":-336,"dy":37,"t":31715},{"dx":-475,"dy":7,"t":31757},{"dx":-542,"dy":-36,"t":31786},{"dx":-418,"dy":-19,"t":31826},{"dx":-349,"dy":-14,"t":31855},{"dx":-355,"dy":-20,"t":31895},{"dx":-396,"dy":-40,"t":31924},{"dx":-419,"dy":-95,"t":31964},{"dx":-450,"dy":-137,"t":31995},{"dx":-457,"dy":-141,"t":32035},{"dx":-533,"dy":-139,"t":32064},{"dx":-401,"dy":-81,"t":32105},{"dx":-364,"dy":-73,"t":32136},{"dx":-293,"dy":-48,"t":32174},{"dx":-305,"dy":-22,"t":32204},{"dx":-181,"dy":-31,"t":32246},{"dx":-119,"dy":-26,"t":32277},{"dx":-160,"dy":-97,"t":32320},{"dx":-203,"dy":-136,"t":32352},{"dx":-147,"dy":-132,"t":32393},{"dx":-144,"dy":-116,"t":32425},{"dx":-152,"dy":-104,"t":32466},{"dx":-162,"dy":-91,"t":32496},{"dx":-129,"dy":-96,"t":32539},{"dx":-114,"dy":-113,"t":32570},{"dx":-13,"dy":-130,"t":32608},{"dx":51,"dy":-163,"t":32639},{"dx":86,"dy":-158,"t":32681},{"dx":95,"dy":-166,"t":32712},{"dx":-7,"dy":-152,"t":32755},{"dx":-68,"dy":-134,"t":32783},{"dx":-145,"dy":-129,"t":32824},{"dx":-197,"dy":-128,"t":32853},{"dx":-206,"dy":-133,"t":32893},{"dx":-254,"dy":-130,"t":32923},{"dx":-184,"dy":-112,"t":32965},{"dx":-187,"dy":-117,"t":32994},{"dx":-105,"dy":-128,"t":33035},{"dx":-90,"dy":-120,"t":33064},{"dx":-121,"dy":-101,"t":33105},{"dx":-169,"dy":-100,"t":33135},{"dx":-74,"dy":-96,"t":33176},{"dx":-35,"dy":-98,"t":33206},{"dx":36,"dy":-118,"t":33246},{"dx":66,"dy":-134,"t":33260}],[{"dx":3,"dy":-96,"t":34292},{"dx":-5,"dy":-106,"t":34323},{"dx":54,"dy":-118,"t":34364},{"dx":63,"dy":-116,"t":34393},{"dx":103,"dy":-127,"t":34432},{"dx":119,"dy":-139,"t":34461},{"dx":130,"dy":-149,"t":34507},{"dx":105,"dy":-144,"t":34537},{"dx":49,"dy":-158,"t":34579},{"dx":4,"dy":-170,"t":34608},{"dx":22,"dy":-171,"t":34650},{"dx":36,"dy":-159,"t":34680},{"dx":48,"dy":-148,"t":34724},{"dx":45,"dy":-143,"t":34753},{"dx":82,"dy":-129,"t":34800},{"dx":84,"dy":-110,"t":34839},{"dx":157,"dy":-130,"t":34891},{"dx":161,"dy":-141,"t":34923},{"dx":191,"dy":-143,"t":34965},{"dx":166,"dy":-145,"t":34996},{"dx":115,"dy":-151,"t":35038},{"dx":91,"dy":-153,"t":35068},{"dx":108,"dy":-155,"t":35106},{"dx":108,"dy":-162,"t":35136},{"dx":101,"dy":-167,"t":35177},{"dx":99,"dy":-165,"t":35205},{"dx":91,"dy":-138,"t":35252},{"dx":86,"dy":-148,"t":35284},{"dx":104,"dy":-154,"t":35325},{"dx":81,"dy":-170,"t":35354},{"dx":78,"dy":-163,"t":35395},{"dx":129,"dy":-151,"t":35426},{"dx":85,"dy":-123,"t":35465},{"dx":69,"dy":-114,"t":35497},{"dx":49,"dy":-116,"t":35537},{"dx":40,"dy":-124,"t":35566},{"dx":60,"dy":-143,"t":35606},{"dx":88,"dy":-151,"t":35636},{"dx":102,"dy":-146,"t":35678},{"dx":122,"dy":-154,"t":35708},{"dx":195,"dy":-134,"t":35745},{"dx":209,"dy":-112,"t":35775},{"dx":176,"dy":-78,"t":35814},{"dx":174,"dy":-62,"t":35844},{"dx":133,"dy":-56,"t":35893},{"dx":119,"dy":-61,"t":35924},{"dx":143,"dy":-47,"t":35965},{"dx":171,"dy":-41,"t":35995},{"dx":158,"dy":-28,"t":36037},{"dx":118,"dy":-27,"t":36068},{"dx":146,"dy":-49,"t":36112},{"dx":172,"dy":-50,"t":36140},{"dx":162,"dy":-67,"t":36179},{"dx":132,"dy":-83,"t":36208},{"dx":76,"dy":-122,"t":36251},{"dx":51,"dy":-143,"t":36263}],[{"dx":129,"dy":-95,"t":37278},{"dx":101,"dy":-96,"t":37308},{"dx":92,"dy":-103,"t":37345},{"dx":98,"dy":-123,"t":37375},{"dx":106,"dy":-137,"t":37418},{"dx":108,"dy":-135,"t":37448},{"dx":96,"dy":-121,"t":37487},{"dx":85,"dy":-111,"t":37518},{"dx":69,"dy":-81,"t":37559},{"dx":79,"dy":-79,"t":37592},{"dx":63,"dy":-60,"t":37633},{"dx":69,"dy":-40,"t":37662},{"dx":68,"dy":-18,"t":37704},{"dx":62,"dy":-13,"t":37736},{"dx":50,"dy":-17,"t":37776},{"dx":46,"dy":-24,"t":37808},{"dx":34,"dy":-42,"t":37849},{"dx":23,"dy":-42,"t":37880},{"dx":-58,"dy":82,"t":37919},{"dx":-112,"dy":194,"t":37953},{"dx":-191,"dy":354,"t":37993},{"dx":-219,"dy":406,"t":38021},{"dx":-141,"dy":408,"t":38063},{"dx":-54,"dy":372,"t":38093},{"dx":54,"dy":291,"t":38132},{"dx":92,"dy":239,"t":38162},{"dx":157,"dy":121,"t":38202},{"dx":166,"dy":74,"t":38233},{"dx":177,"dy":-31,"t":38274},{"dx":187,"dy":-75,"t":38304},{"dx":166,"dy":-107,"t":38345},{"dx":150,"dy":-122,"t":38377},{"dx":126,"dy":-127,"t":38417},{"dx":119,"dy":-125,"t":38447},{"dx":100,"dy":-124,"t":38487},{"dx":103,"dy":-113,"t":38519},{"dx":74,"dy":-111,"t":38558},{"dx":73,"dy":-101,"t":38590},{"dx":70,"dy":-81,"t":38628},{"dx":68,"dy":-72,"t":38657},{"dx":53,"dy":-51,"t":38698},{"dx":42,"dy":-40,"t":38728},{"dx":36,"dy":-39,"t":38766},{"dx":40,"dy":-37,"t":38796},{"dx":58,"dy":-35,"t":38837},{"dx":71,"dy":-33,"t":38865},{"dx":92,"dy":-25,"t":38906},{"dx":101,"dy":-19,"t":38939},{"dx":105,"dy":-46,"t":38980},{"dx":100,"dy":-54,"t":39009},{"dx":101,"dy":-53,"t":39052},{"dx":105,"dy":-51,"t":39085},{"dx":108,"dy":-53,"t":39129},{"dx":108,"dy":-57,"t":39158},{"dx":71,"dy":-64,"t":39199},{"dx":57,"dy":-78,"t":39232}]],"percent_in_roi":[100,44.06779661016949,30.18867924528302,77.96610169491525,83.05084745762711,13.559322033898304,56.86274509803921,76.66666666666667,1.694915254237288,0,12.068965517241379,25,60.71428571428571],"average_offset":[{"x":9.233333333333333,"y":7.883333333333334,"r":63.923269984691196},{"x":-132.864406779661,"y":71.50847457627118,"r":51.866735851105176},{"x":158.20754716981133,"y":95.77358490566037,"r":49.34170420227604},{"x":99.49152542372882,"y":-9.661016949152541,"r":54.406666138537254},{"x":-70.98305084745763,"y":35.42372881355932,"r":72.01925474288244},{"x":205.6271186440678,"y":-100.54237288135593,"r":63.77204628059331},{"x":85.3529411764706,"y":92.33333333333333,"r":80.03381878414521},{"x":-42.333333333333336,"y":95.35,"r":69.58474306954906},{"x":197.54237288135593,"y":129.77966101694915,"r":85.2157004252492},{"x":-322.56140350877195,"y":-185.47368421052633,"r":119.26667409897435},{"x":-237.55172413793105,"y":-96.12068965517241,"r":207.25450774189744},{"x":102.82142857142857,"y":-122.32142857142857,"r":79.5306152491213},{"x":66.66071428571429,"y":-12.857142857142858,"r":112.40989042097723}],"samples_per_sec":"28.05","clicks":15,"pattern":"spread","trial_type":"webgazer-validate","trial_index":25,"time_elapsed":228141,"internal_node_id":"0.0-10.0-3.2","validation_points":[[75,25],[85,15],[15,15],[25,75],[62.5,62.5],[15,85],[37.5,62.5],[37.5,37.5],[25,25],[85,85],[75,75],[50,50],[62.5,37.5]],"user_agent":"Mozilla/5.0 (Windows NT 10.0; Win64; x64) AppleWebKit/537.36 (KHTML, like Gecko) Chrome/88.0.4324.190 Safari/537.36","screen_width_px":1920,"screen_height_px":1080},{"rt":1818.924999999581,"stimulus":"\n      <p>Round complete.</p>\n      <p>You can move a little bit, but please try to return you head to the same general location before continuing.</p>\n    ","response":0,"trial_type":"html-button-response","trial_index":26,"time_elapsed":229962,"internal_node_id":"0.0-10.0-4.2","user_agent":"Mozilla/5.0 (Windows NT 10.0; Win64; x64) AppleWebKit/537.36 (KHTML, like Gecko) Chrome/88.0.4324.190 Safari/537.36","screen_width_px":1920,"screen_height_px":1080},{"trial_type":"webgazer-init-camera","trial_index":27,"time_elapsed":236961,"internal_node_id":"0.0-10.0-5.2","user_agent":"Mozilla/5.0 (Windows NT 10.0; Win64; x64) AppleWebKit/537.36 (KHTML, like Gecko) Chrome/88.0.4324.190 Safari/537.36","screen_width_px":1920,"screen_height_px":1080},{"rt":643.4650000010151,"stimulus":"\n      <p>Calibration phase next.</p>\n      <p>Click on the dots.</p>\n    ","response":0,"trial_type":"html-button-response","trial_index":28,"time_elapsed":237606,"internal_node_id":"0.0-10.0-0.3","user_agent":"Mozilla/5.0 (Windows NT 10.0; Win64; x64) AppleWebKit/537.36 (KHTML, like Gecko) Chrome/88.0.4324.190 Safari/537.36","screen_width_px":1920,"screen_height_px":1080},{"trial_type":"webgazer-calibrate","trial_index":29,"time_elapsed":265545,"internal_node_id":"0.0-10.0-1.3","user_agent":"Mozilla/5.0 (Windows NT 10.0; Win64; x64) AppleWebKit/537.36 (KHTML, like Gecko) Chrome/88.0.4324.190 Safari/537.36","screen_width_px":1920,"screen_height_px":1080},{"rt":847.9599999845959,"stimulus":"\n      <p>Validation phase next.</p>\n      <p>Look at the dots.</p>\n    ","response":0,"trial_type":"html-button-response","trial_index":30,"time_elapsed":266394,"internal_node_id":"0.0-10.0-2.3","user_agent":"Mozilla/5.0 (Windows NT 10.0; Win64; x64) AppleWebKit/537.36 (KHTML, like Gecko) Chrome/88.0.4324.190 Safari/537.36","screen_width_px":1920,"screen_height_px":1080},{"raw_gaze":[[{"dx":-46,"dy":108,"t":1071},{"dx":-60,"dy":89,"t":1102},{"dx":-79,"dy":188,"t":1141},{"dx":-83,"dy":286,"t":1171},{"dx":-41,"dy":342,"t":1211},{"dx":-8,"dy":404,"t":1241},{"dx":-48,"dy":385,"t":1281},{"dx":-75,"dy":379,"t":1310},{"dx":-154,"dy":376,"t":1350},{"dx":-196,"dy":401,"t":1379},{"dx":-202,"dy":326,"t":1418},{"dx":-187,"dy":289,"t":1449},{"dx":-176,"dy":244,"t":1488},{"dx":-158,"dy":235,"t":1518},{"dx":-139,"dy":217,"t":1557},{"dx":-153,"dy":202,"t":1588},{"dx":-150,"dy":167,"t":1627},{"dx":-151,"dy":171,"t":1655},{"dx":-126,"dy":92,"t":1694},{"dx":-116,"dy":51,"t":1723},{"dx":-115,"dy":59,"t":1762},{"dx":-118,"dy":67,"t":1790},{"dx":-149,"dy":133,"t":1829},{"dx":-145,"dy":167,"t":1857},{"dx":-106,"dy":184,"t":1898},{"dx":-111,"dy":198,"t":1927},{"dx":-124,"dy":141,"t":1966},{"dx":-138,"dy":163,"t":2001},{"dx":-153,"dy":169,"t":2047},{"dx":-162,"dy":168,"t":2078},{"dx":-137,"dy":169,"t":2115},{"dx":-118,"dy":155,"t":2144},{"dx":-132,"dy":174,"t":2182},{"dx":-133,"dy":171,"t":2214},{"dx":-175,"dy":186,"t":2251},{"dx":-200,"dy":199,"t":2282},{"dx":-181,"dy":147,"t":2322},{"dx":-175,"dy":126,"t":2352},{"dx":-125,"dy":158,"t":2392},{"dx":-100,"dy":163,"t":2422},{"dx":-87,"dy":163,"t":2463},{"dx":-73,"dy":142,"t":2493},{"dx":-70,"dy":142,"t":2538},{"dx":-88,"dy":158,"t":2570},{"dx":-123,"dy":189,"t":2611},{"dx":-151,"dy":190,"t":2640},{"dx":-160,"dy":153,"t":2680},{"dx":-147,"dy":121,"t":2708},{"dx":-175,"dy":98,"t":2748},{"dx":-185,"dy":98,"t":2776},{"dx":-149,"dy":155,"t":2817},{"dx":-127,"dy":171,"t":2848},{"dx":-160,"dy":161,"t":2890},{"dx":-184,"dy":150,"t":2919},{"dx":-174,"dy":139,"t":2962},{"dx":-184,"dy":126,"t":2994},{"dx":-129,"dy":151,"t":3043},{"dx":-101,"dy":152,"t":3079},{"dx":-91,"dy":149,"t":3106}],[{"dx":288,"dy":109,"t":4105},{"dx":221,"dy":59,"t":4150},{"dx":193,"dy":39,"t":4180},{"dx":197,"dy":16,"t":4223},{"dx":222,"dy":11,"t":4250},{"dx":294,"dy":29,"t":4290},{"dx":334,"dy":32,"t":4319},{"dx":351,"dy":-21,"t":4360},{"dx":363,"dy":-74,"t":4392},{"dx":344,"dy":-83,"t":4431},{"dx":336,"dy":-73,"t":4464},{"dx":330,"dy":0,"t":4502},{"dx":308,"dy":34,"t":4533},{"dx":290,"dy":52,"t":4576},{"dx":292,"dy":41,"t":4611},{"dx":330,"dy":127,"t":4648},{"dx":339,"dy":149,"t":4678},{"dx":324,"dy":146,"t":4718},{"dx":319,"dy":164,"t":4748},{"dx":257,"dy":88,"t":5049},{"dx":242,"dy":33,"t":5079},{"dx":233,"dy":-32,"t":5118},{"dx":214,"dy":-61,"t":5147},{"dx":215,"dy":-38,"t":5188},{"dx":208,"dy":-39,"t":5221},{"dx":177,"dy":-52,"t":5261},{"dx":184,"dy":-34,"t":5290},{"dx":178,"dy":-3,"t":5329},{"dx":188,"dy":12,"t":5358},{"dx":261,"dy":19,"t":5398},{"dx":309,"dy":13,"t":5430},{"dx":312,"dy":59,"t":5472},{"dx":322,"dy":63,"t":5504},{"dx":389,"dy":37,"t":5544},{"dx":403,"dy":34,"t":5576},{"dx":362,"dy":67,"t":5618},{"dx":349,"dy":74,"t":5650},{"dx":325,"dy":74,"t":5692},{"dx":341,"dy":60,"t":5731},{"dx":351,"dy":75,"t":5790},{"dx":324,"dy":89,"t":5821},{"dx":265,"dy":91,"t":5861},{"dx":246,"dy":81,"t":5893},{"dx":211,"dy":76,"t":5933},{"dx":197,"dy":79,"t":5966},{"dx":237,"dy":63,"t":6016},{"dx":263,"dy":60,"t":6045},{"dx":251,"dy":46,"t":6085},{"dx":250,"dy":12,"t":6099}],[{"dx":69,"dy":47,"t":7120},{"dx":52,"dy":58,"t":7150},{"dx":27,"dy":89,"t":7191},{"dx":41,"dy":96,"t":7221},{"dx":13,"dy":92,"t":7261},{"dx":-7,"dy":98,"t":7293},{"dx":19,"dy":110,"t":7334},{"dx":17,"dy":103,"t":7368},{"dx":66,"dy":87,"t":7407},{"dx":83,"dy":89,"t":7438},{"dx":101,"dy":118,"t":7478},{"dx":109,"dy":118,"t":7506},{"dx":60,"dy":115,"t":7547},{"dx":61,"dy":135,"t":7578},{"dx":-26,"dy":85,"t":7619},{"dx":-35,"dy":71,"t":7651},{"dx":-41,"dy":7,"t":7691},{"dx":-32,"dy":-17,"t":7720},{"dx":-44,"dy":-50,"t":7760},{"dx":-62,"dy":-56,"t":7790},{"dx":-54,"dy":-18,"t":7832},{"dx":-50,"dy":-14,"t":7864},{"dx":-32,"dy":-8,"t":7902},{"dx":-18,"dy":1,"t":7933},{"dx":-21,"dy":16,"t":7973},{"dx":-23,"dy":21,"t":8007},{"dx":16,"dy":61,"t":8050},{"dx":49,"dy":91,"t":8080},{"dx":107,"dy":85,"t":8124},{"dx":121,"dy":63,"t":8158},{"dx":141,"dy":85,"t":8198},{"dx":136,"dy":106,"t":8228},{"dx":142,"dy":135,"t":8270},{"dx":158,"dy":148,"t":8302},{"dx":97,"dy":113,"t":8344},{"dx":50,"dy":87,"t":8376},{"dx":-30,"dy":49,"t":8420},{"dx":-59,"dy":40,"t":8453},{"dx":-23,"dy":13,"t":8496},{"dx":11,"dy":-5,"t":8531},{"dx":27,"dy":-34,"t":8576},{"dx":15,"dy":-29,"t":8611},{"dx":10,"dy":-20,"t":8651},{"dx":12,"dy":-14,"t":8680},{"dx":41,"dy":26,"t":8721},{"dx":58,"dy":36,"t":8753},{"dx":88,"dy":44,"t":8792},{"dx":101,"dy":42,"t":8824},{"dx":50,"dy":44,"t":8861},{"dx":21,"dy":49,"t":8892},{"dx":14,"dy":38,"t":8930},{"dx":36,"dy":51,"t":8960},{"dx":3,"dy":4,"t":9001},{"dx":-1,"dy":-32,"t":9030},{"dx":9,"dy":-52,"t":9069},{"dx":-4,"dy":-33,"t":9097},{"dx":4,"dy":-21,"t":9124}],[{"dx":67,"dy":-63,"t":10136},{"dx":59,"dy":4,"t":10177},{"dx":55,"dy":39,"t":10207},{"dx":107,"dy":43,"t":10246},{"dx":94,"dy":39,"t":10277},{"dx":90,"dy":7,"t":10318},{"dx":89,"dy":-12,"t":10347},{"dx":106,"dy":-18,"t":10388},{"dx":111,"dy":-23,"t":10417},{"dx":190,"dy":-56,"t":10458},{"dx":227,"dy":-80,"t":10488},{"dx":275,"dy":-103,"t":10532},{"dx":282,"dy":-108,"t":10566},{"dx":279,"dy":-153,"t":10604},{"dx":249,"dy":-166,"t":10637},{"dx":205,"dy":-156,"t":10677},{"dx":200,"dy":-135,"t":10710},{"dx":198,"dy":-102,"t":10752},{"dx":153,"dy":-81,"t":10784},{"dx":123,"dy":-35,"t":10821},{"dx":114,"dy":-10,"t":10853},{"dx":88,"dy":-23,"t":10894},{"dx":77,"dy":-38,"t":10925},{"dx":144,"dy":-96,"t":10966},{"dx":187,"dy":-130,"t":11001},{"dx":195,"dy":-76,"t":11041},{"dx":209,"dy":-26,"t":11074},{"dx":184,"dy":-30,"t":11113},{"dx":166,"dy":-60,"t":11144},{"dx":140,"dy":-85,"t":11184},{"dx":132,"dy":-83,"t":11216},{"dx":137,"dy":-64,"t":11256},{"dx":168,"dy":-58,"t":11287},{"dx":157,"dy":-41,"t":11327},{"dx":168,"dy":-39,"t":11357},{"dx":190,"dy":-60,"t":11398},{"dx":201,"dy":-80,"t":11429},{"dx":150,"dy":-68,"t":11468},{"dx":120,"dy":-60,"t":11499},{"dx":125,"dy":-31,"t":11538},{"dx":109,"dy":-2,"t":11571},{"dx":144,"dy":-1,"t":11615},{"dx":179,"dy":-4,"t":11648},{"dx":175,"dy":-10,"t":11686},{"dx":184,"dy":-22,"t":11718},{"dx":207,"dy":-41,"t":11759},{"dx":220,"dy":-49,"t":11832},{"dx":202,"dy":-54,"t":11870},{"dx":202,"dy":-63,"t":11900},{"dx":200,"dy":-81,"t":11939},{"dx":199,"dy":-89,"t":11968},{"dx":154,"dy":-55,"t":12015},{"dx":145,"dy":-54,"t":12042},{"dx":116,"dy":-29,"t":12083},{"dx":101,"dy":-3,"t":12113},{"dx":77,"dy":-14,"t":12139}],[{"dx":91,"dy":240,"t":13127},{"dx":95,"dy":233,"t":13188},{"dx":100,"dy":230,"t":13217},{"dx":95,"dy":225,"t":13256},{"dx":88,"dy":222,"t":13286},{"dx":22,"dy":196,"t":13327},{"dx":14,"dy":188,"t":13355},{"dx":-72,"dy":153,"t":13395},{"dx":-103,"dy":141,"t":13423},{"dx":-150,"dy":123,"t":13466},{"dx":-168,"dy":117,"t":13493},{"dx":-114,"dy":154,"t":13537},{"dx":-80,"dy":177,"t":13566},{"dx":-18,"dy":183,"t":13604},{"dx":-3,"dy":178,"t":13631},{"dx":68,"dy":184,"t":13671},{"dx":103,"dy":171,"t":13699},{"dx":143,"dy":178,"t":13741},{"dx":171,"dy":199,"t":13769},{"dx":152,"dy":211,"t":13806},{"dx":110,"dy":219,"t":13834},{"dx":64,"dy":235,"t":13872},{"dx":74,"dy":237,"t":13901},{"dx":87,"dy":258,"t":13940},{"dx":86,"dy":251,"t":13970},{"dx":103,"dy":232,"t":14010},{"dx":93,"dy":213,"t":14037},{"dx":61,"dy":185,"t":14075},{"dx":42,"dy":175,"t":14102},{"dx":52,"dy":161,"t":14141},{"dx":53,"dy":159,"t":14170},{"dx":112,"dy":143,"t":14208},{"dx":128,"dy":129,"t":14237},{"dx":135,"dy":124,"t":14274},{"dx":159,"dy":147,"t":14303},{"dx":117,"dy":94,"t":14343},{"dx":168,"dy":79,"t":14372},{"dx":173,"dy":80,"t":14410},{"dx":179,"dy":95,"t":14438},{"dx":129,"dy":103,"t":14477},{"dx":74,"dy":104,"t":14505},{"dx":83,"dy":146,"t":14544},{"dx":93,"dy":172,"t":14575},{"dx":105,"dy":223,"t":14616},{"dx":108,"dy":247,"t":14645},{"dx":122,"dy":248,"t":14683},{"dx":119,"dy":244,"t":14712},{"dx":111,"dy":227,"t":14750},{"dx":106,"dy":217,"t":14782},{"dx":100,"dy":207,"t":14822},{"dx":99,"dy":207,"t":14850},{"dx":87,"dy":201,"t":14886},{"dx":77,"dy":197,"t":14915},{"dx":76,"dy":182,"t":14954},{"dx":60,"dy":216,"t":14982},{"dx":55,"dy":182,"t":15021},{"dx":44,"dy":166,"t":15048},{"dx":1,"dy":112,"t":15087},{"dx":-48,"dy":98,"t":15117},{"dx":-74,"dy":116,"t":15143}],[{"dx":80,"dy":55,"t":16132},{"dx":14,"dy":18,"t":16193},{"dx":-6,"dy":7,"t":16222},{"dx":-40,"dy":-3,"t":16261},{"dx":-77,"dy":-8,"t":16290},{"dx":-116,"dy":-22,"t":16328},{"dx":-121,"dy":-31,"t":16357},{"dx":-144,"dy":5,"t":16394},{"dx":-166,"dy":20,"t":16423},{"dx":-141,"dy":26,"t":16463},{"dx":-130,"dy":14,"t":16492},{"dx":-74,"dy":-7,"t":16530},{"dx":-63,"dy":-26,"t":16557},{"dx":-47,"dy":-42,"t":16596},{"dx":-42,"dy":-43,"t":16623},{"dx":-38,"dy":-21,"t":16660},{"dx":-39,"dy":-2,"t":16690},{"dx":33,"dy":39,"t":16729},{"dx":37,"dy":51,"t":16759},{"dx":37,"dy":90,"t":16803},{"dx":-15,"dy":105,"t":16834},{"dx":-41,"dy":68,"t":16876},{"dx":-41,"dy":58,"t":16909},{"dx":-108,"dy":155,"t":16954},{"dx":-123,"dy":146,"t":16985},{"dx":-149,"dy":122,"t":17025},{"dx":-160,"dy":109,"t":17050},{"dx":-72,"dy":121,"t":17087},{"dx":-52,"dy":134,"t":17117},{"dx":-15,"dy":132,"t":17154},{"dx":-18,"dy":143,"t":17186},{"dx":40,"dy":112,"t":17229},{"dx":53,"dy":89,"t":17266},{"dx":34,"dy":59,"t":17309},{"dx":29,"dy":68,"t":17340},{"dx":-23,"dy":105,"t":17383},{"dx":-65,"dy":137,"t":17414},{"dx":-43,"dy":178,"t":17460},{"dx":-38,"dy":159,"t":17498},{"dx":-42,"dy":124,"t":17570},{"dx":-55,"dy":108,"t":17599},{"dx":-50,"dy":57,"t":17637},{"dx":-51,"dy":48,"t":17666},{"dx":-57,"dy":35,"t":17707},{"dx":-60,"dy":31,"t":17737},{"dx":-79,"dy":102,"t":17776},{"dx":-87,"dy":124,"t":17808},{"dx":-25,"dy":118,"t":17845},{"dx":-3,"dy":90,"t":17874},{"dx":43,"dy":52,"t":17913},{"dx":53,"dy":30,"t":17942},{"dx":49,"dy":36,"t":17984},{"dx":47,"dy":33,"t":18015},{"dx":46,"dy":70,"t":18053},{"dx":33,"dy":74,"t":18082},{"dx":27,"dy":88,"t":18122},{"dx":38,"dy":70,"t":18154},{"dx":36,"dy":44,"t":18181}],[{"dx":-125,"dy":116,"t":19190},{"dx":-129,"dy":93,"t":19221},{"dx":-155,"dy":26,"t":19261},{"dx":-172,"dy":-11,"t":19288},{"dx":-174,"dy":-18,"t":19328},{"dx":-164,"dy":2,"t":19356},{"dx":-130,"dy":11,"t":19394},{"dx":-110,"dy":3,"t":19421},{"dx":-85,"dy":-1,"t":19463},{"dx":-67,"dy":2,"t":19492},{"dx":-85,"dy":47,"t":19532},{"dx":-93,"dy":60,"t":19559},{"dx":-57,"dy":16,"t":19600},{"dx":-26,"dy":-1,"t":19627},{"dx":0,"dy":-23,"t":19667},{"dx":19,"dy":-20,"t":19695},{"dx":14,"dy":4,"t":19735},{"dx":23,"dy":25,"t":19763},{"dx":18,"dy":40,"t":19803},{"dx":2,"dy":33,"t":19832},{"dx":-13,"dy":43,"t":19870},{"dx":-14,"dy":57,"t":19899},{"dx":-81,"dy":117,"t":19937},{"dx":-101,"dy":122,"t":19967},{"dx":-122,"dy":105,"t":20008},{"dx":-124,"dy":87,"t":20035},{"dx":-142,"dy":78,"t":20074},{"dx":-153,"dy":91,"t":20104},{"dx":-178,"dy":123,"t":20146},{"dx":-181,"dy":136,"t":20173},{"dx":-148,"dy":108,"t":20213},{"dx":-129,"dy":91,"t":20240},{"dx":-107,"dy":69,"t":20279},{"dx":-97,"dy":92,"t":20306},{"dx":-95,"dy":121,"t":20346},{"dx":-96,"dy":140,"t":20374},{"dx":-84,"dy":202,"t":20414},{"dx":-95,"dy":225,"t":20444},{"dx":-74,"dy":140,"t":20484},{"dx":-62,"dy":84,"t":20513},{"dx":-37,"dy":25,"t":20552},{"dx":-25,"dy":17,"t":20582},{"dx":-3,"dy":5,"t":20621},{"dx":4,"dy":3,"t":20648},{"dx":4,"dy":14,"t":20689},{"dx":0,"dy":25,"t":20717},{"dx":-8,"dy":42,"t":20754},{"dx":-11,"dy":49,"t":20781},{"dx":-35,"dy":70,"t":20819},{"dx":-53,"dy":83,"t":20848},{"dx":-62,"dy":106,"t":20888},{"dx":-56,"dy":115,"t":20917},{"dx":-45,"dy":127,"t":20955},{"dx":-41,"dy":130,"t":20986},{"dx":-45,"dy":115,"t":21029},{"dx":-52,"dy":98,"t":21059},{"dx":-47,"dy":109,"t":21099},{"dx":-32,"dy":117,"t":21128},{"dx":-30,"dy":137,"t":21170},{"dx":-40,"dy":149,"t":21182}],[{"dx":296,"dy":124,"t":22205},{"dx":332,"dy":133,"t":22235},{"dx":311,"dy":134,"t":22277},{"dx":266,"dy":128,"t":22305},{"dx":142,"dy":107,"t":22345},{"dx":89,"dy":92,"t":22373},{"dx":54,"dy":63,"t":22415},{"dx":42,"dy":47,"t":22445},{"dx":25,"dy":61,"t":22482},{"dx":19,"dy":84,"t":22510},{"dx":56,"dy":86,"t":22551},{"dx":87,"dy":86,"t":22581},{"dx":88,"dy":119,"t":22619},{"dx":88,"dy":139,"t":22647},{"dx":84,"dy":162,"t":22685},{"dx":81,"dy":166,"t":22717},{"dx":63,"dy":177,"t":22754},{"dx":52,"dy":183,"t":22782},{"dx":35,"dy":191,"t":22822},{"dx":30,"dy":193,"t":22850},{"dx":32,"dy":166,"t":22888},{"dx":39,"dy":141,"t":22917},{"dx":49,"dy":90,"t":22955},{"dx":53,"dy":66,"t":22985},{"dx":63,"dy":77,"t":23029},{"dx":75,"dy":78,"t":23055},{"dx":46,"dy":74,"t":23095},{"dx":21,"dy":81,"t":23123},{"dx":17,"dy":55,"t":23164},{"dx":12,"dy":61,"t":23204},{"dx":-3,"dy":67,"t":23260},{"dx":-10,"dy":68,"t":23287},{"dx":-14,"dy":81,"t":23332},{"dx":-10,"dy":75,"t":23361},{"dx":-39,"dy":78,"t":23401},{"dx":-52,"dy":58,"t":23429},{"dx":-46,"dy":52,"t":23469},{"dx":-32,"dy":62,"t":23500},{"dx":6,"dy":74,"t":23540},{"dx":30,"dy":66,"t":23573},{"dx":46,"dy":64,"t":23614},{"dx":42,"dy":68,"t":23642},{"dx":49,"dy":83,"t":23682},{"dx":56,"dy":93,"t":23709},{"dx":92,"dy":117,"t":23750},{"dx":99,"dy":120,"t":23780},{"dx":65,"dy":108,"t":23821},{"dx":54,"dy":94,"t":23851},{"dx":40,"dy":86,"t":23890},{"dx":40,"dy":74,"t":23919},{"dx":33,"dy":86,"t":23960},{"dx":27,"dy":102,"t":23989},{"dx":47,"dy":128,"t":24028},{"dx":72,"dy":136,"t":24058},{"dx":87,"dy":151,"t":24097},{"dx":81,"dy":158,"t":24126},{"dx":95,"dy":166,"t":24163},{"dx":109,"dy":163,"t":24193},{"dx":186,"dy":166,"t":24220}],[{"dx":-68,"dy":-95,"t":25231},{"dx":-90,"dy":-92,"t":25259},{"dx":-116,"dy":-80,"t":25296},{"dx":-121,"dy":-71,"t":25326},{"dx":-122,"dy":-76,"t":25368},{"dx":-123,"dy":-79,"t":25396},{"dx":-121,"dy":-62,"t":25441},{"dx":-124,"dy":-52,"t":25475},{"dx":-140,"dy":-49,"t":25517},{"dx":-143,"dy":-59,"t":25545},{"dx":-129,"dy":-59,"t":25587},{"dx":-127,"dy":-53,"t":25613},{"dx":-141,"dy":-18,"t":25650},{"dx":-164,"dy":-9,"t":25675},{"dx":-190,"dy":-13,"t":25712},{"dx":-200,"dy":-15,"t":25741},{"dx":-166,"dy":-23,"t":25781},{"dx":-145,"dy":-31,"t":25810},{"dx":-134,"dy":-19,"t":25848},{"dx":-152,"dy":6,"t":25876},{"dx":-142,"dy":10,"t":25915},{"dx":-139,"dy":16,"t":25953},{"dx":-135,"dy":2,"t":25998},{"dx":-145,"dy":18,"t":26036},{"dx":-118,"dy":-36,"t":26074},{"dx":-113,"dy":-55,"t":26100},{"dx":-116,"dy":-64,"t":26139},{"dx":-123,"dy":-58,"t":26173},{"dx":-110,"dy":-61,"t":26216},{"dx":-93,"dy":-69,"t":26250},{"dx":-95,"dy":0,"t":26290},{"dx":-79,"dy":7,"t":26318},{"dx":-86,"dy":-23,"t":26359},{"dx":-72,"dy":-45,"t":26388},{"dx":-74,"dy":-66,"t":26431},{"dx":-75,"dy":-71,"t":26461},{"dx":-53,"dy":-44,"t":26501},{"dx":-49,"dy":-21,"t":26531},{"dx":-27,"dy":60,"t":26572},{"dx":-36,"dy":106,"t":26600},{"dx":-45,"dy":95,"t":26637},{"dx":-42,"dy":79,"t":26662},{"dx":-84,"dy":62,"t":26698},{"dx":-103,"dy":60,"t":26724},{"dx":-120,"dy":30,"t":26761},{"dx":-105,"dy":4,"t":26791},{"dx":-92,"dy":-25,"t":26831},{"dx":-103,"dy":-16,"t":26860},{"dx":-99,"dy":-32,"t":26904},{"dx":-95,"dy":-36,"t":26932},{"dx":-98,"dy":-46,"t":26973},{"dx":-91,"dy":-51,"t":27001},{"dx":-118,"dy":-58,"t":27041},{"dx":-142,"dy":-61,"t":27068},{"dx":-169,"dy":-70,"t":27105},{"dx":-189,"dy":-77,"t":27132},{"dx":-195,"dy":-51,"t":27170},{"dx":-188,"dy":-29,"t":27196},{"dx":-168,"dy":-15,"t":27223}],[{"dx":-285,"dy":-105,"t":28237},{"dx":-357,"dy":-220,"t":28277},{"dx":-411,"dy":-316,"t":28307},{"dx":-502,"dy":-457,"t":28352},{"dx":-545,"dy":-491,"t":28383},{"dx":-534,"dy":-421,"t":28421},{"dx":-526,"dy":-352,"t":28454},{"dx":-450,"dy":-180,"t":28494},{"dx":-417,"dy":-104,"t":28527},{"dx":-329,"dy":-92,"t":28568},{"dx":-303,"dy":-87,"t":28599},{"dx":-261,"dy":-125,"t":28644},{"dx":-232,"dy":-140,"t":28677},{"dx":-197,"dy":-116,"t":28717},{"dx":-205,"dy":-92,"t":28747},{"dx":-196,"dy":-79,"t":28789},{"dx":-209,"dy":-65,"t":28820},{"dx":-224,"dy":-13,"t":28864},{"dx":-244,"dy":5,"t":28894},{"dx":-235,"dy":23,"t":28937},{"dx":-229,"dy":19,"t":28967},{"dx":-226,"dy":21,"t":29011},{"dx":-226,"dy":34,"t":29041},{"dx":-194,"dy":-60,"t":29081},{"dx":-189,"dy":-90,"t":29119},{"dx":-229,"dy":-72,"t":29176},{"dx":-266,"dy":-57