[{"rt":4078.8350000511855,"stimulus":"\n      <p>You can elect whether to include your data in our research dataset.</p>\n    ","response":0,"question":"consent","trial_type":"html-button-response","trial_index":0,"time_elapsed":4084,"internal_node_id":"0.0-0.0","user_agent":"Mozilla/5.0 (Macintosh; Intel Mac OS X 10_13_5) AppleWebKit/537.36 (KHTML, like Gecko) Chrome/88.0.4324.150 Safari/537.36","screen_width_px":1280,"screen_height_px":800},{"rt":891.2149999523535,"stimulus":"\n      <p>This experiment uses your camera for eye tracking.</p>\n      <p>No video is saved from this experiment. The only data recorded are predictions about where you are looking.</p>\n      <p>Before we begin, there are a few things to do that can improve the accuracy of the eye tracking.</p>\n    ","response":0,"trial_type":"html-button-response","trial_index":1,"time_elapsed":4977,"internal_node_id":"0.0-1.0","user_agent":"Mozilla/5.0 (Macintosh; Intel Mac OS X 10_13_5) AppleWebKit/537.36 (KHTML, like Gecko) Chrome/88.0.4324.150 Safari/537.36","screen_width_px":1280,"screen_height_px":800},{"rt":1151.2099999235943,"stimulus":"\n      <p>If you wear glasses and can complete the task without them, please remove your glasses.</p>\n    ","response":0,"trial_type":"html-button-response","trial_index":2,"time_elapsed":6130,"internal_node_id":"0.0-2.0","user_agent":"Mozilla/5.0 (Macintosh; Intel Mac OS X 10_13_5) AppleWebKit/537.36 (KHTML, like Gecko) Chrome/88.0.4324.150 Safari/537.36","screen_width_px":1280,"screen_height_px":800},{"rt":2426.6699999570847,"stimulus":"\n      <p>Please close additional browser tabs and apps running in the background.<br>The eye tracker works best when there are fewer things running at the same time.</p>\n    ","response":0,"trial_type":"html-button-response","trial_index":3,"time_elapsed":8558,"internal_node_id":"0.0-3.0","user_agent":"Mozilla/5.0 (Macintosh; Intel Mac OS X 10_13_5) AppleWebKit/537.36 (KHTML, like Gecko) Chrome/88.0.4324.150 Safari/537.36","screen_width_px":1280,"screen_height_px":800},{"rt":1222.7549999952316,"stimulus":"\n      <p>Try to avoid bright lights behind you.<br>The eye tracker works best if your face is well lit from the front.<br>If you can, adjust the lighting in your room.</p>\n    ","response":0,"trial_type":"html-button-response","trial_index":4,"time_elapsed":9782,"internal_node_id":"0.0-4.0","user_agent":"Mozilla/5.0 (Macintosh; Intel Mac OS X 10_13_5) AppleWebKit/537.36 (KHTML, like Gecko) Chrome/88.0.4324.150 Safari/537.36","screen_width_px":1280,"screen_height_px":800},{"rt":989.6200000075623,"stimulus":"\n      <p>In order to participate you must allow the experiment to use your camera.</p>\n      <p>You will be prompted to do this on the next screen.</p>\n    ","response":0,"trial_type":"html-button-response","trial_index":5,"time_elapsed":10772,"internal_node_id":"0.0-5.0","user_agent":"Mozilla/5.0 (Macintosh; Intel Mac OS X 10_13_5) AppleWebKit/537.36 (KHTML, like Gecko) Chrome/88.0.4324.150 Safari/537.36","screen_width_px":1280,"screen_height_px":800},{"trial_type":"webgazer-init-camera","trial_index":6,"time_elapsed":28215,"internal_node_id":"0.0-6.0","user_agent":"Mozilla/5.0 (Macintosh; Intel Mac OS X 10_13_5) AppleWebKit/537.36 (KHTML, like Gecko) Chrome/88.0.4324.150 Safari/537.36","screen_width_px":1280,"screen_height_px":800},{"rt":1035.9800000442192,"stimulus":"\n      <p>Now you'll complete a series of calibrations and validations.</p>\n      <p>The calibration will be reset after each round, so it is OK to move a little bit<br>in between the end of a validation and the start of the next calibration.</p>\n      <p>Please keep your head still during each round.</p>\n    ","response":0,"trial_type":"html-button-response","trial_index":7,"time_elapsed":29252,"internal_node_id":"0.0-7.0","user_agent":"Mozilla/5.0 (Macintosh; Intel Mac OS X 10_13_5) AppleWebKit/537.36 (KHTML, like Gecko) Chrome/88.0.4324.150 Safari/537.36","screen_width_px":1280,"screen_height_px":800},{"success":true,"trial_type":"fullscreen","trial_index":8,"time_elapsed":31160,"internal_node_id":"0.0-8.0","user_agent":"Mozilla/5.0 (Macintosh; Intel Mac OS X 10_13_5) AppleWebKit/537.36 (KHTML, like Gecko) Chrome/88.0.4324.150 Safari/537.36","screen_width_px":1280,"screen_height_px":800},{"rt":729.7200000612065,"stimulus":"\n      <p>During the calibration phase, please look at each dot and click on it.</p>\n      <p>During the validation phase, just look at each dot while it is on the screen.</p>\n    ","response":0,"trial_type":"html-button-response","trial_index":9,"time_elapsed":31891,"internal_node_id":"0.0-9.0","user_agent":"Mozilla/5.0 (Macintosh; Intel Mac OS X 10_13_5) AppleWebKit/537.36 (KHTML, like Gecko) Chrome/88.0.4324.150 Safari/537.36","screen_width_px":1280,"screen_height_px":800},{"rt":772.5449999561533,"stimulus":"\n      <p>Calibration phase next.</p>\n      <p>Click on the dots.</p>\n    ","response":0,"trial_type":"html-button-response","trial_index":10,"time_elapsed":32665,"internal_node_id":"0.0-10.0-0.0","user_agent":"Mozilla/5.0 (Macintosh; Intel Mac OS X 10_13_5) AppleWebKit/537.36 (KHTML, like Gecko) Chrome/88.0.4324.150 Safari/537.36","screen_width_px":1280,"screen_height_px":800},{"trial_type":"webgazer-calibrate","trial_index":11,"time_elapsed":53440,"internal_node_id":"0.0-10.0-1.0","user_agent":"Mozilla/5.0 (Macintosh; Intel Mac OS X 10_13_5) AppleWebKit/537.36 (KHTML, like Gecko) Chrome/88.0.4324.150 Safari/537.36","screen_width_px":1280,"screen_height_px":800},{"rt":1056.4649999141693,"stimulus":"\n      <p>Validation phase next.</p>\n      <p>Look at the dots.</p>\n    ","response":0,"trial_type":"html-button-response","trial_index":12,"time_elapsed":54497,"internal_node_id":"0.0-10.0-2.0","user_agent":"Mozilla/5.0 (Macintosh; Intel Mac OS X 10_13_5) AppleWebKit/537.36 (KHTML, like Gecko) Chrome/88.0.4324.150 Safari/537.36","screen_width_px":1280,"screen_height_px":800},{"raw_gaze":[[{"dx":-17,"dy":-16,"t":1105},{"dx":6,"dy":-4,"t":1173},{"dx":62,"dy":16,"t":1218},{"dx":100,"dy":21,"t":1283},{"dx":98,"dy":16,"t":1324},{"dx":119,"dy":8,"t":1386},{"dx":138,"dy":12,"t":1428},{"dx":179,"dy":16,"t":1488},{"dx":198,"dy":17,"t":1527},{"dx":136,"dy":-15,"t":1590},{"dx":110,"dy":-30,"t":1628},{"dx":89,"dy":-22,"t":1692},{"dx":30,"dy":-33,"t":1734},{"dx":82,"dy":-26,"t":1801},{"dx":103,"dy":-27,"t":1842},{"dx":141,"dy":-33,"t":1907},{"dx":175,"dy":-25,"t":1953},{"dx":169,"dy":-15,"t":2013},{"dx":126,"dy":-22,"t":2059},{"dx":115,"dy":-3,"t":2123},{"dx":114,"dy":2,"t":2162},{"dx":73,"dy":-27,"t":2223},{"dx":54,"dy":-48,"t":2264},{"dx":73,"dy":-38,"t":2333},{"dx":93,"dy":-27,"t":2377},{"dx":75,"dy":-37,"t":2444},{"dx":110,"dy":-25,"t":2485},{"dx":139,"dy":-15,"t":2549},{"dx":138,"dy":-11,"t":2590},{"dx":177,"dy":-5,"t":2660},{"dx":191,"dy":-4,"t":2702},{"dx":197,"dy":-19,"t":2770},{"dx":196,"dy":-21,"t":2824},{"dx":192,"dy":-13,"t":2891},{"dx":199,"dy":1,"t":2934},{"dx":169,"dy":17,"t":2999},{"dx":163,"dy":15,"t":3039},{"dx":136,"dy":32,"t":3117},{"dx":109,"dy":36,"t":3189}],[{"dx":-7,"dy":11,"t":4196},{"dx":-22,"dy":7,"t":4238},{"dx":13,"dy":20,"t":4304},{"dx":20,"dy":27,"t":4348},{"dx":24,"dy":22,"t":4414},{"dx":28,"dy":16,"t":4456},{"dx":-4,"dy":21,"t":4516},{"dx":-34,"dy":29,"t":4558},{"dx":-77,"dy":44,"t":4618},{"dx":-96,"dy":49,"t":4660},{"dx":-109,"dy":59,"t":4722},{"dx":-110,"dy":64,"t":4769},{"dx":-100,"dy":63,"t":4833},{"dx":-91,"dy":59,"t":4874},{"dx":-81,"dy":35,"t":4936},{"dx":-80,"dy":16,"t":4979},{"dx":-75,"dy":13,"t":5045},{"dx":-80,"dy":16,"t":5089},{"dx":-110,"dy":0,"t":5154},{"dx":-117,"dy":-7,"t":5199},{"dx":-147,"dy":-24,"t":5272},{"dx":-161,"dy":-27,"t":5490},{"dx":-177,"dy":9,"t":5559},{"dx":-222,"dy":26,"t":5559},{"dx":-260,"dy":39,"t":5602},{"dx":-277,"dy":77,"t":5664},{"dx":-254,"dy":99,"t":5705},{"dx":-209,"dy":118,"t":5773},{"dx":-189,"dy":118,"t":5813},{"dx":-216,"dy":78,"t":5874},{"dx":-231,"dy":64,"t":5913},{"dx":-222,"dy":44,"t":5974},{"dx":-202,"dy":39,"t":6013},{"dx":-130,"dy":38,"t":6076},{"dx":-95,"dy":46,"t":6177},{"dx":-75,"dy":46,"t":6214}],[{"dx":24,"dy":17,"t":7146},{"dx":49,"dy":15,"t":7242},{"dx":56,"dy":16,"t":7281},{"dx":44,"dy":4,"t":7345},{"dx":38,"dy":-3,"t":7388},{"dx":14,"dy":-4,"t":7448},{"dx":23,"dy":-9,"t":7487},{"dx":62,"dy":-12,"t":7548},{"dx":71,"dy":-12,"t":7591},{"dx":99,"dy":-16,"t":7654},{"dx":98,"dy":-18,"t":7696},{"dx":97,"dy":-16,"t":7755},{"dx":62,"dy":-15,"t":7795},{"dx":55,"dy":-8,"t":7872},{"dx":75,"dy":-3,"t":7913},{"dx":127,"dy":20,"t":7978},{"dx":156,"dy":35,"t":8023},{"dx":128,"dy":21,"t":8088},{"dx":115,"dy":13,"t":8127},{"dx":101,"dy":15,"t":8187},{"dx":113,"dy":25,"t":8228},{"dx":104,"dy":27,"t":8290},{"dx":93,"dy":28,"t":8331},{"dx":100,"dy":11,"t":8398},{"dx":117,"dy":7,"t":8439},{"dx":122,"dy":1,"t":8502},{"dx":109,"dy":-1,"t":8540},{"dx":81,"dy":-9,"t":8606},{"dx":68,"dy":-15,"t":8651},{"dx":37,"dy":-14,"t":8715},{"dx":21,"dy":-9,"t":8758},{"dx":3,"dy":2,"t":8818},{"dx":1,"dy":4,"t":8859},{"dx":54,"dy":20,"t":8921},{"dx":76,"dy":27,"t":8962},{"dx":70,"dy":43,"t":9023},{"dx":60,"dy":50,"t":9063},{"dx":33,"dy":48,"t":9124},{"dx":1,"dy":46,"t":9164},{"dx":-7,"dy":32,"t":9264}],[{"dx":94,"dy":43,"t":10188},{"dx":106,"dy":27,"t":10251},{"dx":108,"dy":25,"t":10295},{"dx":125,"dy":14,"t":10356},{"dx":122,"dy":4,"t":10396},{"dx":142,"dy":-5,"t":10456},{"dx":150,"dy":-12,"t":10496},{"dx":157,"dy":-25,"t":10558},{"dx":156,"dy":-30,"t":10598},{"dx":146,"dy":-33,"t":10657},{"dx":137,"dy":-25,"t":10698},{"dx":134,"dy":-25,"t":10774},{"dx":128,"dy":-26,"t":10814},{"dx":127,"dy":-26,"t":10884},{"dx":132,"dy":-35,"t":10929},{"dx":144,"dy":-21,"t":10988},{"dx":118,"dy":-24,"t":11027},{"dx":123,"dy":-18,"t":11092},{"dx":110,"dy":-20,"t":11129},{"dx":52,"dy":-42,"t":11188},{"dx":39,"dy":-59,"t":11227},{"dx":48,"dy":-63,"t":11291},{"dx":53,"dy":-74,"t":11331},{"dx":50,"dy":-77,"t":11390},{"dx":43,"dy":-78,"t":11431},{"dx":60,"dy":-50,"t":11494},{"dx":71,"dy":-35,"t":11537},{"dx":40,"dy":61,"t":11604},{"dx":-11,"dy":134,"t":11643},{"dx":-79,"dy":192,"t":11704},{"dx":-79,"dy":226,"t":11742},{"dx":-74,"dy":265,"t":11803},{"dx":-50,"dy":281,"t":11844},{"dx":-18,"dy":282,"t":11904},{"dx":1,"dy":269,"t":11945},{"dx":44,"dy":248,"t":12005},{"dx":67,"dy":233,"t":12044},{"dx":157,"dy":194,"t":12109},{"dx":191,"dy":163,"t":12152},{"dx":243,"dy":110,"t":12283},{"dx":280,"dy":103,"t":12387}],[{"dx":-70,"dy":-12,"t":13285},{"dx":-60,"dy":-8,"t":13327},{"dx":-161,"dy":93,"t":13389},{"dx":-268,"dy":182,"t":13427},{"dx":-384,"dy":347,"t":13491},{"dx":-413,"dy":396,"t":13530},{"dx":-352,"dy":433,"t":13591},{"dx":-318,"dy":429,"t":13633},{"dx":-240,"dy":383,"t":13694},{"dx":-211,"dy":351,"t":13735},{"dx":-64,"dy":292,"t":13794},{"dx":-18,"dy":255,"t":13833},{"dx":-9,"dy":205,"t":13894},{"dx":-37,"dy":185,"t":13932},{"dx":19,"dy":109,"t":13999},{"dx":55,"dy":78,"t":14038},{"dx":98,"dy":38,"t":14109},{"dx":109,"dy":27,"t":14159},{"dx":80,"dy":30,"t":14221},{"dx":44,"dy":33,"t":14304},{"dx":5,"dy":33,"t":14365},{"dx":-1,"dy":31,"t":14402},{"dx":-13,"dy":13,"t":14468},{"dx":-10,"dy":3,"t":14511},{"dx":-9,"dy":-7,"t":14580},{"dx":-2,"dy":-8,"t":14623},{"dx":-27,"dy":8,"t":14694},{"dx":-38,"dy":12,"t":14732},{"dx":-62,"dy":11,"t":14807},{"dx":-65,"dy":14,"t":14846},{"dx":-46,"dy":16,"t":14909},{"dx":-32,"dy":20,"t":14948},{"dx":-14,"dy":33,"t":15010},{"dx":-9,"dy":41,"t":15050},{"dx":-37,"dy":61,"t":15118},{"dx":-45,"dy":66,"t":15159},{"dx":-48,"dy":71,"t":15230},{"dx":-43,"dy":72,"t":15309}],[{"dx":85,"dy":-6,"t":16235},{"dx":67,"dy":-9,"t":16294},{"dx":50,"dy":-10,"t":16334},{"dx":36,"dy":-10,"t":16397},{"dx":35,"dy":-8,"t":16436},{"dx":37,"dy":-19,"t":16497},{"dx":22,"dy":-14,"t":16536},{"dx":31,"dy":-17,"t":16603},{"dx":58,"dy":-8,"t":16646},{"dx":82,"dy":5,"t":16706},{"dx":91,"dy":10,"t":16747},{"dx":128,"dy":-4,"t":16807},{"dx":129,"dy":-22,"t":16855},{"dx":98,"dy":-43,"t":16918},{"dx":106,"dy":-52,"t":16958},{"dx":122,"dy":-43,"t":17024},{"dx":129,"dy":-28,"t":17069},{"dx":76,"dy":-20,"t":17154},{"dx":58,"dy":-8,"t":17207},{"dx":-88,"dy":173,"t":17267},{"dx":-199,"dy":318,"t":17310},{"dx":-342,"dy":473,"t":17371},{"dx":-339,"dy":494,"t":17408},{"dx":-248,"dy":446,"t":17474},{"dx":-219,"dy":405,"t":17513},{"dx":-162,"dy":298,"t":17578},{"dx":-135,"dy":237,"t":17616},{"dx":-63,"dy":154,"t":17682},{"dx":-36,"dy":121,"t":17722},{"dx":11,"dy":83,"t":17787},{"dx":12,"dy":69,"t":17827},{"dx":-12,"dy":42,"t":17887},{"dx":-24,"dy":32,"t":17930},{"dx":11,"dy":41,"t":17999},{"dx":38,"dy":42,"t":18039},{"dx":90,"dy":38,"t":18103},{"dx":110,"dy":32,"t":18148},{"dx":112,"dy":16,"t":18207},{"dx":117,"dy":11,"t":18306},{"dx":114,"dy":1,"t":18345}],[{"dx":32,"dy":10,"t":19311},{"dx":37,"dy":5,"t":19351},{"dx":59,"dy":-1,"t":19414},{"dx":70,"dy":2,"t":19459},{"dx":41,"dy":-32,"t":19523},{"dx":11,"dy":-48,"t":19565},{"dx":49,"dy":-38,"t":19628},{"dx":63,"dy":-37,"t":19678},{"dx":80,"dy":-26,"t":19746},{"dx":85,"dy":-19,"t":19794},{"dx":85,"dy":-27,"t":19858},{"dx":89,"dy":-28,"t":19899},{"dx":88,"dy":-44,"t":19960},{"dx":81,"dy":-54,"t":19998},{"dx":65,"dy":-53,"t":20061},{"dx":56,"dy":-44,"t":20103},{"dx":24,"dy":-56,"t":20164},{"dx":12,"dy":-65,"t":20202},{"dx":-4,"dy":-65,"t":20262},{"dx":-18,"dy":-61,"t":20301},{"dx":-5,"dy":-54,"t":20362},{"dx":9,"dy":-47,"t":20403},{"dx":30,"dy":-54,"t":20463},{"dx":37,"dy":-60,"t":20508},{"dx":44,"dy":-62,"t":20579},{"dx":67,"dy":-57,"t":20621},{"dx":86,"dy":-57,"t":20692},{"dx":94,"dy":-63,"t":20736},{"dx":122,"dy":-65,"t":20798},{"dx":141,"dy":-69,"t":20839},{"dx":141,"dy":-76,"t":20903},{"dx":127,"dy":-85,"t":20944},{"dx":88,"dy":-109,"t":21004},{"dx":65,"dy":-116,"t":21043},{"dx":22,"dy":-87,"t":21110},{"dx":24,"dy":-74,"t":21149},{"dx":33,"dy":-52,"t":21212},{"dx":39,"dy":-44,"t":21313},{"dx":34,"dy":-43,"t":21352}],[{"dx":-248,"dy":375,"t":22327},{"dx":-190,"dy":392,"t":22392},{"dx":-152,"dy":365,"t":22431},{"dx":-38,"dy":305,"t":22493},{"dx":2,"dy":246,"t":22534},{"dx":64,"dy":156,"t":22595},{"dx":80,"dy":121,"t":22635},{"dx":158,"dy":80,"t":22696},{"dx":160,"dy":57,"t":22736},{"dx":178,"dy":26,"t":22807},{"dx":179,"dy":18,"t":22852},{"dx":137,"dy":12,"t":22917},{"dx":116,"dy":7,"t":22956},{"dx":76,"dy":10,"t":23029},{"dx":66,"dy":18,"t":23071},{"dx":80,"dy":27,"t":23136},{"dx":93,"dy":25,"t":23175},{"dx":82,"dy":21,"t":23237},{"dx":82,"dy":24,"t":23277},{"dx":85,"dy":45,"t":23337},{"dx":75,"dy":45,"t":23377},{"dx":94,"dy":73,"t":23437},{"dx":101,"dy":94,"t":23478},{"dx":60,"dy":69,"t":23539},{"dx":37,"dy":45,"t":23577},{"dx":10,"dy":17,"t":23646},{"dx":13,"dy":18,"t":23689},{"dx":32,"dy":7,"t":23753},{"dx":4,"dy":-7,"t":23794},{"dx":16,"dy":-13,"t":23857},{"dx":35,"dy":-3,"t":23895},{"dx":50,"dy":0,"t":23968},{"dx":36,"dy":2,"t":24017},{"dx":78,"dy":-18,"t":24077},{"dx":78,"dy":-27,"t":24120},{"dx":95,"dy":-35,"t":24185},{"dx":101,"dy":-33,"t":24223},{"dx":124,"dy":-30,"t":24287},{"dx":140,"dy":-29,"t":24369}],[{"dx":52,"dy":-12,"t":25333},{"dx":52,"dy":-12,"t":25373},{"dx":52,"dy":4,"t":25432},{"dx":52,"dy":18,"t":25471},{"dx":18,"dy":1,"t":25537},{"dx":-7,"dy":-20,"t":25579},{"dx":-33,"dy":-22,"t":25640},{"dx":-19,"dy":-5,"t":25679},{"dx":11,"dy":37,"t":25738},{"dx":17,"dy":47,"t":25778},{"dx":23,"dy":49,"t":25838},{"dx":39,"dy":51,"t":25880},{"dx":76,"dy":46,"t":25939},{"dx":88,"dy":34,"t":25981},{"dx":135,"dy":24,"t":26041},{"dx":140,"dy":17,"t":26080},{"dx":135,"dy":22,"t":26139},{"dx":131,"dy":18,"t":26178},{"dx":64,"dy":5,"t":26240},{"dx":40,"dy":1,"t":26279},{"dx":-2,"dy":3,"t":26337},{"dx":-10,"dy":10,"t":26379},{"dx":-37,"dy":7,"t":26440},{"dx":-45,"dy":2,"t":26480},{"dx":-45,"dy":2,"t":26542},{"dx":-39,"dy":7,"t":26582},{"dx":7,"dy":0,"t":26644},{"dx":21,"dy":-4,"t":26684},{"dx":29,"dy":-39,"t":26746},{"dx":35,"dy":-56,"t":26790},{"dx":50,"dy":-67,"t":26851},{"dx":59,"dy":-63,"t":26890},{"dx":100,"dy":-55,"t":26950},{"dx":92,"dy":-53,"t":26988},{"dx":90,"dy":-50,"t":27048},{"dx":73,"dy":-51,"t":27088},{"dx":59,"dy":-34,"t":27153},{"dx":60,"dy":-19,"t":27192},{"dx":68,"dy":6,"t":27250},{"dx":73,"dy":16,"t":27291},{"dx":86,"dy":13,"t":27372}],[{"dx":24,"dy":-156,"t":28354},{"dx":60,"dy":-153,"t":28393},{"dx":96,"dy":-146,"t":28454},{"dx":104,"dy":-139,"t":28493},{"dx":96,"dy":-113,"t":28551},{"dx":86,"dy":-95,"t":28593},{"dx":112,"dy":-99,"t":28655},{"dx":124,"dy":-105,"t":28693},{"dx":67,"dy":9,"t":28753},{"dx":35,"dy":94,"t":28792},{"dx":-33,"dy":259,"t":28852},{"dx":-66,"dy":344,"t":28891},{"dx":-30,"dy":376,"t":28953},{"dx":4,"dy":361,"t":28996},{"dx":50,"dy":287,"t":29056},{"dx":64,"dy":235,"t":29098},{"dx":77,"dy":158,"t":29168},{"dx":69,"dy":122,"t":29208},{"dx":45,"dy":65,"t":29271},{"dx":39,"dy":43,"t":29317},{"dx":22,"dy":31,"t":29377},{"dx":12,"dy":28,"t":29416},{"dx":-10,"dy":12,"t":29484},{"dx":-20,"dy":6,"t":29525},{"dx":-14,"dy":-16,"t":29584},{"dx":-6,"dy":-26,"t":29622},{"dx":-16,"dy":-28,"t":29682},{"dx":-29,"dy":-29,"t":29721},{"dx":-55,"dy":-47,"t":29788},{"dx":-69,"dy":-63,"t":29829},{"dx":-48,"dy":-69,"t":29894},{"dx":-38,"dy":-66,"t":29932},{"dx":-23,"dy":-70,"t":29996},{"dx":-19,"dy":-76,"t":30035},{"dx":20,"dy":-89,"t":30103},{"dx":50,"dy":-96,"t":30142},{"dx":57,"dy":-77,"t":30201},{"dx":57,"dy":-72,"t":30249},{"dx":36,"dy":-68,"t":30307},{"dx":14,"dy":-60,"t":30349},{"dx":-2,"dy":-58,"t":30441}],[{"dx":97,"dy":-77,"t":31426},{"dx":122,"dy":-74,"t":31476},{"dx":116,"dy":-64,"t":31599},{"dx":110,"dy":-43,"t":31639},{"dx":51,"dy":-48,"t":31701},{"dx":29,"dy":-50,"t":31741},{"dx":47,"dy":-82,"t":31802},{"dx":58,"dy":-93,"t":31843},{"dx":62,"dy":-107,"t":31903},{"dx":49,"dy":-113,"t":31944},{"dx":20,"dy":-125,"t":32004},{"dx":4,"dy":-132,"t":32044},{"dx":7,"dy":-136,"t":32104},{"dx":22,"dy":-135,"t":32152},{"dx":19,"dy":-135,"t":32210},{"dx":6,"dy":-137,"t":32248},{"dx":-1,"dy":-121,"t":32307},{"dx":17,"dy":-117,"t":32345},{"dx":-65,"dy":12,"t":32404},{"dx":-148,"dy":109,"t":32444},{"dx":-336,"dy":229,"t":32505},{"dx":-369,"dy":274,"t":32545},{"dx":-301,"dy":310,"t":32606},{"dx":-252,"dy":311,"t":32647},{"dx":-159,"dy":262,"t":32706},{"dx":-134,"dy":236,"t":32743},{"dx":-106,"dy":147,"t":32804},{"dx":-78,"dy":111,"t":32844},{"dx":-31,"dy":52,"t":32905},{"dx":-28,"dy":16,"t":32944},{"dx":-10,"dy":-36,"t":33004},{"dx":-5,"dy":-55,"t":33043},{"dx":23,"dy":-59,"t":33116},{"dx":37,"dy":-51,"t":33157},{"dx":71,"dy":-27,"t":33217},{"dx":77,"dy":-14,"t":33256},{"dx":97,"dy":-10,"t":33315},{"dx":110,"dy":-16,"t":33411},{"dx":137,"dy":-16,"t":33450}],[{"dx":119,"dy":-147,"t":34389},{"dx":140,"dy":-159,"t":34478},{"dx":151,"dy":-164,"t":34524},{"dx":182,"dy":-149,"t":34592},{"dx":202,"dy":-140,"t":34636},{"dx":219,"dy":-131,"t":34700},{"dx":224,"dy":-131,"t":34743},{"dx":196,"dy":-105,"t":34808},{"dx":192,"dy":-96,"t":34846},{"dx":178,"dy":-81,"t":34907},{"dx":177,"dy":-74,"t":34949},{"dx":142,"dy":-44,"t":35006},{"dx":133,"dy":-36,"t":35050},{"dx":139,"dy":-50,"t":35109},{"dx":139,"dy":-55,"t":35152},{"dx":137,"dy":-60,"t":35213},{"dx":136,"dy":-60,"t":35251},{"dx":142,"dy":-59,"t":35310},{"dx":148,"dy":-58,"t":35351},{"dx":148,"dy":-54,"t":35409},{"dx":159,"dy":-56,"t":35449},{"dx":178,"dy":-65,"t":35514},{"dx":187,"dy":-71,"t":35570},{"dx":188,"dy":-77,"t":35655},{"dx":183,"dy":-78,"t":35694},{"dx":184,"dy":-89,"t":35760},{"dx":190,"dy":-98,"t":35800},{"dx":201,"dy":-116,"t":35862},{"dx":207,"dy":-125,"t":35902},{"dx":233,"dy":-135,"t":35963},{"dx":252,"dy":-137,"t":36001},{"dx":279,"dy":-128,"t":36062},{"dx":288,"dy":-118,"t":36102},{"dx":282,"dy":-101,"t":36167},{"dx":271,"dy":-93,"t":36206},{"dx":244,"dy":-92,"t":36271},{"dx":232,"dy":-93,"t":36309},{"dx":205,"dy":-78,"t":36372},{"dx":191,"dy":-64,"t":36478},{"dx":156,"dy":-67,"t":36515}],[{"dx":77,"dy":53,"t":37472},{"dx":59,"dy":41,"t":37519},{"dx":30,"dy":11,"t":37580},{"dx":19,"dy":-5,"t":37622},{"dx":11,"dy":-24,"t":37685},{"dx":13,"dy":-29,"t":37727},{"dx":12,"dy":-44,"t":37789},{"dx":10,"dy":-53,"t":37827},{"dx":28,"dy":-69,"t":37890},{"dx":45,"dy":-75,"t":37930},{"dx":69,"dy":-74,"t":37991},{"dx":77,"dy":-69,"t":38029},{"dx":89,"dy":-59,"t":38090},{"dx":89,"dy":-55,"t":38137},{"dx":80,"dy":-37,"t":38205},{"dx":82,"dy":-23,"t":38246},{"dx":109,"dy":-16,"t":38308},{"dx":136,"dy":-15,"t":38347},{"dx":153,"dy":-6,"t":38411},{"dx":159,"dy":4,"t":38450},{"dx":174,"dy":4,"t":38513},{"dx":158,"dy":5,"t":38558},{"dx":137,"dy":-20,"t":38616},{"dx":129,"dy":-32,"t":38654},{"dx":128,"dy":-58,"t":38712},{"dx":123,"dy":-62,"t":38755},{"dx":87,"dy":-72,"t":38816},{"dx":54,"dy":-85,"t":38858},{"dx":80,"dy":-73,"t":38915},{"dx":96,"dy":-60,"t":38960},{"dx":83,"dy":-68,"t":39032},{"dx":83,"dy":-75,"t":39072},{"dx":92,"dy":-75,"t":39147},{"dx":70,"dy":-82,"t":39186},{"dx":92,"dy":-63,"t":39260},{"dx":104,"dy":-55,"t":39300},{"dx":104,"dy":-39,"t":39364},{"dx":95,"dy":-32,"t":39404}]],"percent_in_roi":[69.23076923076923,66.66666666666666,97.5,63.41463414634146,68.42105263157895,77.5,92.3076923076923,74.35897435897436,100,70.73170731707317,79.48717948717949,15,89.47368421052632],"average_offset":[{"x":121.97435897435898,"y":-9.025641025641026,"r":47.40362727710777},{"x":-115.97222222222223,"y":37.611111111111114,"r":119.96502816261165},{"x":68.75,"y":9.075,"r":59.0643373072144},{"x":87.48780487804878,"y":50.51219512195122,"r":102.63545626540495},{"x":-70.94736842105263,"y":114.10526315789474,"r":177.8315064699845},{"x":4.7,"y":80.5,"r":169.4020512949018},{"x":56.48717948717949,"y":-50.12820512820513,"r":39.65973784644387},{"x":56.12820512820513,"y":64.23076923076923,"r":82.82507330462101},{"x":43.65853658536585,"y":-2.975609756097561,"r":55.205117489464506},{"x":22.975609756097562,"y":10.097560975609756,"r":97.5134030355035},{"x":-16.28205128205128,"y":-0.10256410256410256,"r":130.4131023011416},{"x":188.85,"y":-93.35,"r":78.5185721680032},{"x":85.15789473684211,"y":-39.10526315789474,"r":67.16121910998153}],"samples_per_sec":"18.54","clicks":15,"pattern":"spread","trial_type":"webgazer-validate","trial_index":13,"time_elapsed":94928,"internal_node_id":"0.0-10.0-3.0","validation_points":[[25,75],[85,85],[37.5,37.5],[37.5,62.5],[62.5,37.5],[85,15],[75,25],[50,50],[75,75],[25,25],[62.5,62.5],[15,15],[15,85]],"user_agent":"Mozilla/5.0 (Macintosh; Intel Mac OS X 10_13_5) AppleWebKit/537.36 (KHTML, like Gecko) Chrome/88.0.4324.150 Safari/537.36","screen_width_px":1280,"screen_height_px":800},{"rt":1919.6849999716505,"stimulus":"\n      <p>Round complete.</p>\n      <p>You can move a little bit, but please try to return you head to the same general location before continuing.</p>\n    ","response":0,"trial_type":"html-button-response","trial_index":14,"time_elapsed":96851,"internal_node_id":"0.0-10.0-4.0","user_agent":"Mozilla/5.0 (Macintosh; Intel Mac OS X 10_13_5) AppleWebKit/537.36 (KHTML, like Gecko) Chrome/88.0.4324.150 Safari/537.36","screen_width_px":1280,"screen_height_px":800},{"trial_type":"webgazer-init-camera","trial_index":15,"time_elapsed":99119,"internal_node_id":"0.0-10.0-5.0","user_agent":"Mozilla/5.0 (Macintosh; Intel Mac OS X 10_13_5) AppleWebKit/537.36 (KHTML, like Gecko) Chrome/88.0.4324.150 Safari/537.36","screen_width_px":1280,"screen_height_px":800},{"rt":1021.3149999035522,"stimulus":"\n      <p>Calibration phase next.</p>\n      <p>Click on the dots.</p>\n    ","response":0,"trial_type":"html-button-response","trial_index":16,"time_elapsed":100143,"internal_node_id":"0.0-10.0-0.1","user_agent":"Mozilla/5.0 (Macintosh; Intel Mac OS X 10_13_5) AppleWebKit/537.36 (KHTML, like Gecko) Chrome/88.0.4324.150 Safari/537.36","screen_width_px":1280,"screen_height_px":800},{"trial_type":"webgazer-calibrate","trial_index":17,"time_elapsed":130312,"internal_node_id":"0.0-10.0-1.1","user_agent":"Mozilla/5.0 (Macintosh; Intel Mac OS X 10_13_5) AppleWebKit/537.36 (KHTML, like Gecko) Chrome/88.0.4324.150 Safari/537.36","screen_width_px":1280,"screen_height_px":800},{"rt":950.6549999350682,"stimulus":"\n      <p>Validation phase next.</p>\n      <p>Look at the dots.</p>\n    ","response":0,"trial_type":"html-button-response","trial_index":18,"time_elapsed":131265,"internal_node_id":"0.0-10.0-2.1","user_agent":"Mozilla/5.0 (Macintosh; Intel Mac OS X 10_13_5) AppleWebKit/537.36 (KHTML, like Gecko) Chrome/88.0.4324.150 Safari/537.36","screen_width_px":1280,"screen_height_px":800},{"raw_gaze":[[{"dx":-195,"dy":102,"t":1142},{"dx":-197,"dy":109,"t":1242},{"dx":-163,"dy":104,"t":1376},{"dx":-156,"dy":97,"t":1452},{"dx":-164,"dy":79,"t":1531},{"dx":-152,"dy":65,"t":1614},{"dx":-116,"dy":62,"t":1691},{"dx":-88,"dy":57,"t":1738},{"dx":-22,"dy":53,"t":1810},{"dx":-1,"dy":47,"t":1875},{"dx":-6,"dy":14,"t":1962},{"dx":13,"dy":-7,"t":2010},{"dx":25,"dy":27,"t":2102},{"dx":53,"dy":41,"t":2155},{"dx":82,"dy":62,"t":2247},{"dx":87,"dy":69,"t":2303},{"dx":40,"dy":78,"t":2399},{"dx":13,"dy":85,"t":2514},{"dx":27,"dy":74,"t":2607},{"dx":40,"dy":71,"t":2651},{"dx":-49,"dy":69,"t":2725},{"dx":-81,"dy":67,"t":2782},{"dx":-76,"dy":56,"t":2864},{"dx":-48,"dy":48,"t":2917},{"dx":-71,"dy":64,"t":3012},{"dx":-82,"dy":76,"t":3091},{"dx":-69,"dy":91,"t":3142}],[{"dx":186,"dy":236,"t":4161},{"dx":170,"dy":250,"t":4212},{"dx":87,"dy":257,"t":4310},{"dx":39,"dy":250,"t":4375},{"dx":-23,"dy":201,"t":4444},{"dx":-52,"dy":175,"t":4498},{"dx":-47,"dy":122,"t":4587},{"dx":-37,"dy":96,"t":4649},{"dx":-52,"dy":56,"t":4742},{"dx":-39,"dy":43,"t":4792},{"dx":-74,"dy":57,"t":4862},{"dx":-49,"dy":59,"t":4906},{"dx":-63,"dy":55,"t":4977},{"dx":-90,"dy":61,"t":5041},{"dx":-127,"dy":70,"t":5111},{"dx":-138,"dy":71,"t":5155},{"dx":-133,"dy":22,"t":5225},{"dx":-82,"dy":13,"t":5275},{"dx":-117,"dy":0,"t":5342},{"dx":-124,"dy":2,"t":5388},{"dx":-124,"dy":5,"t":5461},{"dx":-120,"dy":-6,"t":5511},{"dx":-132,"dy":-7,"t":5583},{"dx":-142,"dy":-7,"t":5642},{"dx":-158,"dy":-12,"t":5707},{"dx":-166,"dy":-16,"t":5754},{"dx":-172,"dy":-34,"t":5849},{"dx":-177,"dy":-42,"t":6061},{"dx":-149,"dy":-43,"t":6187},{"dx":-127,"dy":-33,"t":6267}],[{"dx":175,"dy":-15,"t":7164},{"dx":202,"dy":-16,"t":7205},{"dx":165,"dy":-10,"t":7263},{"dx":149,"dy":-6,"t":7303},{"dx":127,"dy":-14,"t":7363},{"dx":111,"dy":-13,"t":7404},{"dx":94,"dy":-35,"t":7463},{"dx":78,"dy":-51,"t":7504},{"dx":51,"dy":-47,"t":7562},{"dx":36,"dy":-38,"t":7602},{"dx":12,"dy":-44,"t":7666},{"dx":8,"dy":-47,"t":7704},{"dx":11,"dy":-51,"t":7761},{"dx":18,"dy":-52,"t":7801},{"dx":21,"dy":-55,"t":7863},{"dx":29,"dy":-59,"t":7904},{"dx":73,"dy":-27,"t":8013},{"dx":98,"dy":-12,"t":8057},{"dx":110,"dy":0,"t":8129},{"dx":113,"dy":3,"t":8169},{"dx":73,"dy":17,"t":8227},{"dx":43,"dy":11,"t":8268},{"dx":19,"dy":15,"t":8327},{"dx":21,"dy":23,"t":8370},{"dx":10,"dy":45,"t":8429},{"dx":-1,"dy":57,"t":8472},{"dx":8,"dy":50,"t":8532},{"dx":18,"dy":45,"t":8577},{"dx":4,"dy":28,"t":8647},{"dx":16,"dy":27,"t":8688},{"dx":27,"dy":26,"t":8750},{"dx":10,"dy":23,"t":8795},{"dx":-28,"dy":7,"t":8864},{"dx":-48,"dy":-4,"t":8911},{"dx":-83,"dy":-30,"t":8985},{"dx":-98,"dy":-44,"t":9026},{"dx":-100,"dy":-61,"t":9091},{"dx":-91,"dy":-64,"t":9189},{"dx":-76,"dy":-66,"t":9227}],[{"dx":6,"dy":222,"t":10195},{"dx":76,"dy":147,"t":10257},{"dx":102,"dy":123,"t":10302},{"dx":118,"dy":75,"t":10365},{"dx":107,"dy":60,"t":10406},{"dx":68,"dy":59,"t":10466},{"dx":45,"dy":56,"t":10507},{"dx":19,"dy":42,"t":10566},{"dx":15,"dy":33,"t":10605},{"dx":10,"dy":30,"t":10665},{"dx":9,"dy":35,"t":10706},{"dx":8,"dy":37,"t":10765},{"dx":4,"dy":39,"t":10806},{"dx":24,"dy":47,"t":10873},{"dx":45,"dy":52,"t":10916},{"dx":58,"dy":55,"t":10978},{"dx":60,"dy":51,"t":11026},{"dx":69,"dy":40,"t":11098},{"dx":74,"dy":34,"t":11140},{"dx":68,"dy":27,"t":11204},{"dx":59,"dy":26,"t":11246},{"dx":54,"dy":28,"t":11305},{"dx":58,"dy":31,"t":11347},{"dx":49,"dy":31,"t":11414},{"dx":38,"dy":29,"t":11459},{"dx":23,"dy":20,"t":11533},{"dx":18,"dy":15,"t":11580},{"dx":46,"dy":31,"t":11641},{"dx":56,"dy":36,"t":11681},{"dx":90,"dy":62,"t":11742},{"dx":102,"dy":72,"t":11781},{"dx":124,"dy":82,"t":11849},{"dx":135,"dy":85,"t":11897},{"dx":124,"dy":91,"t":11963},{"dx":114,"dy":85,"t":12006},{"dx":51,"dy":75,"t":12068},{"dx":42,"dy":73,"t":12112},{"dx":38,"dy":75,"t":12197},{"dx":65,"dy":87,"t":12266}],[{"dx":-228,"dy":-120,"t":13227},{"dx":-149,"dy":-82,"t":13294},{"dx":-111,"dy":-78,"t":13337},{"dx":-100,"dy":-66,"t":13401},{"dx":-75,"dy":-79,"t":13441},{"dx":-55,"dy":-97,"t":13509},{"dx":-60,"dy":-107,"t":13550},{"dx":-85,"dy":-109,"t":13620},{"dx":-100,"dy":-94,"t":13662},{"dx":-96,"dy":-84,"t":13728},{"dx":-126,"dy":-84,"t":13770},{"dx":-101,"dy":-83,"t":13831},{"dx":-77,"dy":-76,"t":13890},{"dx":-56,"dy":-57,"t":13954},{"dx":-37,"dy":-47,"t":13997},{"dx":-76,"dy":-23,"t":14062},{"dx":-98,"dy":-31,"t":14105},{"dx":-122,"dy":-14,"t":14172},{"dx":-84,"dy":-2,"t":14212},{"dx":-88,"dy":-5,"t":14272},{"dx":-84,"dy":-2,"t":14314},{"dx":-126,"dy":-16,"t":14376},{"dx":-115,"dy":-5,"t":14435},{"dx":-141,"dy":-10,"t":14517},{"dx":-140,"dy":-15,"t":14564},{"dx":-138,"dy":-49,"t":14629},{"dx":-129,"dy":-58,"t":14669},{"dx":-114,"dy":-70,"t":14730},{"dx":-114,"dy":-81,"t":14771},{"dx":-92,"dy":-97,"t":14830},{"dx":-79,"dy":-106,"t":14873},{"dx":-53,"dy":-94,"t":14933},{"dx":-32,"dy":-88,"t":14976},{"dx":-5,"dy":-79,"t":15035},{"dx":21,"dy":-66,"t":15080},{"dx":21,"dy":-56,"t":15169},{"dx":18,"dy":-49,"t":15278},{"dx":7,"dy":-67,"t":15316}],[{"dx":-47,"dy":62,"t":16272},{"dx":-43,"dy":68,"t":16316},{"dx":-26,"dy":57,"t":16382},{"dx":-14,"dy":41,"t":16422},{"dx":2,"dy":33,"t":16490},{"dx":1,"dy":39,"t":16531},{"dx":5,"dy":36,"t":16602},{"dx":4,"dy":29,"t":16641},{"dx":43,"dy":1,"t":16702},{"dx":53,"dy":-5,"t":16742},{"dx":50,"dy":-18,"t":16803},{"dx":40,"dy":-24,"t":16842},{"dx":16,"dy":-27,"t":16902},{"dx":3,"dy":-26,"t":16941},{"dx":17,"dy":-41,"t":17001},{"dx":39,"dy":-54,"t":17039},{"dx":203,"dy":-71,"t":17099},{"dx":326,"dy":-76,"t":17143},{"dx":405,"dy":-38,"t":17207},{"dx":400,"dy":-8,"t":17252},{"dx":377,"dy":29,"t":17313},{"dx":362,"dy":41,"t":17353},{"dx":298,"dy":49,"t":17416},{"dx":257,"dy":37,"t":17456},{"dx":192,"dy":27,"t":17519},{"dx":169,"dy":28,"t":17564},{"dx":114,"dy":23,"t":17635},{"dx":85,"dy":17,"t":17677},{"dx":39,"dy":4,"t":17736},{"dx":22,"dy":-4,"t":17777},{"dx":13,"dy":17,"t":17836},{"dx":-10,"dy":32,"t":17883},{"dx":-48,"dy":29,"t":17944},{"dx":-74,"dy":27,"t":17985},{"dx":-79,"dy":27,"t":18046},{"dx":-72,"dy":28,"t":18088},{"dx":-50,"dy":37,"t":18153},{"dx":-53,"dy":55,"t":18194},{"dx":-29,"dy":63,"t":18261},{"dx":-23,"dy":71,"t":18281}],[{"dx":66,"dy":-55,"t":19301},{"dx":87,"dy":-54,"t":19351},{"dx":85,"dy":-40,"t":19413},{"dx":95,"dy":-25,"t":19453},{"dx":40,"dy":-14,"t":19519},{"dx":12,"dy":-14,"t":19560},{"dx":-25,"dy":-69,"t":19622},{"dx":-27,"dy":-87,"t":19662},{"dx":-63,"dy":-109,"t":19732},{"dx":-81,"dy":-114,"t":19781},{"dx":-106,"dy":-124,"t":19846},{"dx":-115,"dy":-129,"t":19888},{"dx":-92,"dy":-121,"t":19947},{"dx":-92,"dy":-118,"t":19987},{"dx":-98,"dy":-108,"t":20049},{"dx":-100,"dy":-109,"t":20090},{"dx":-120,"dy":-99,"t":20150},{"dx":-134,"dy":-90,"t":20190},{"dx":-145,"dy":-83,"t":20254},{"dx":-141,"dy":-93,"t":20293},{"dx":-173,"dy":-91,"t":20357},{"dx":-146,"dy":-102,"t":20398},{"dx":-155,"dy":-74,"t":20464},{"dx":-157,"dy":-55,"t":20505},{"dx":-124,"dy":-36,"t":20571},{"dx":-105,"dy":-28,"t":20616},{"dx":-30,"dy":-28,"t":20674},{"dx":-4,"dy":-22,"t":20715},{"dx":46,"dy":-20,"t":20778},{"dx":69,"dy":-23,"t":20818},{"dx":65,"dy":-16,"t":20881},{"dx":39,"dy":-15,"t":20922},{"dx":10,"dy":-40,"t":20982},{"dx":-18,"dy":-53,"t":21023},{"dx":-47,"dy":-64,"t":21084},{"dx":-52,"dy":-65,"t":21125},{"dx":-77,"dy":-65,"t":21185},{"dx":-95,"dy":-64,"t":21224},{"dx":-114,"dy":-85,"t":21288},{"dx":-127,"dy":-94,"t":21364}],[{"dx":-41,"dy":34,"t":22408},{"dx":-57,"dy":31,"t":22518},{"dx":-39,"dy":44,"t":22697},{"dx":-13,"dy":58,"t":22806},{"dx":-50,"dy":37,"t":22955},{"dx":-74,"dy":32,"t":23082},{"dx":-58,"dy":23,"t":23237},{"dx":-50,"dy":9,"t":23397},{"dx":-55,"dy":5,"t":23541},{"dx":-49,"dy":10,"t":23631},{"dx":-16,"dy":19,"t":23788},{"dx":0,"dy":27,"t":23893},{"dx":-27,"dy":31,"t":23995},{"dx":-45,"dy":32,"t":24081},{"dx":-42,"dy":65,"t":24332},{"dx":-36,"dy":80,"t":24484},{"dx":-25,"dy":74,"t":24559}],[{"dx":-144,"dy":46,"t":25593},{"dx":-148,"dy":32,"t":25664},{"dx":-151,"dy":32,"t":25773},{"dx":-158,"dy":32,"t":25843},{"dx":-92,"dy":98,"t":25948},{"dx":-25,"dy":149,"t":26008},{"dx":-20,"dy":231,"t":26101},{"dx":-12,"dy":247,"t":26166},{"dx":-2,"dy":270,"t":26285},{"dx":-6,"dy":267,"t":26398},{"dx":-48,"dy":256,"t":26556},{"dx":-55,"dy":245,"t":26755},{"dx":-77,"dy":206,"t":26888},{"dx":-85,"dy":179,"t":27031},{"dx":-98,"dy":135,"t":27174},{"dx":-103,"dy":122,"t":27272},{"dx":-107,"dy":75,"t":27416},{"dx":-93,"dy":55,"t":27527},{"dx":-72,"dy":49,"t":27572}],[{"dx":-197,"dy":38,"t":28518},{"dx":-195,"dy":36,"t":28558},{"dx":-141,"dy":19,"t":28617},{"dx":-114,"dy":15,"t":28659},{"dx":-109,"dy":11,"t":28719},{"dx":-120,"dy":6,"t":28763},{"dx":-109,"dy":10,"t":28838},{"dx":-99,"dy":14,"t":28886},{"dx":-57,"dy":10,"t":28948},{"dx":-44,"dy":7,"t":28988},{"dx":-38,"dy":26,"t":29047},{"dx":-33,"dy":27,"t":29087},{"dx":-23,"dy":15,"t":29149},{"dx":-27,"dy":14,"t":29192},{"dx":-65,"dy":38,"t":29253},{"dx":-71,"dy":48,"t":29293},{"dx":-38,"dy":50,"t":29353},{"dx":-18,"dy":48,"t":29398},{"dx":-27,"dy":50,"t":29458},{"dx":-49,"dy":54,"t":29496},{"dx":-44,"dy":53,"t":29559},{"dx":-33,"dy":48,"t":29598},{"dx":-25,"dy":63,"t":29658},{"dx":-24,"dy":70,"t":29699},{"dx":-73,"dy":43,"t":29759},{"dx":-66,"dy":33,"t":29800},{"dx":-101,"dy":20,"t":29861},{"dx":-107,"dy":16,"t":29915},{"dx":-94,"dy":27,"t":29976},{"dx":-84,"dy":29,"t":30017},{"dx":-60,"dy":32,"t":30078},{"dx":-48,"dy":33,"t":30119},{"dx":-60,"dy":36,"t":30180},{"dx":-79,"dy":39,"t":30219},{"dx":-95,"dy":48,"t":30281},{"dx":-93,"dy":50,"t":30327},{"dx":-70,"dy":37,"t":30402},{"dx":-56,"dy":30,"t":30444},{"dx":-52,"dy":28,"t":30510},{"dx":-49,"dy":25,"t":30585}],[{"dx":-23,"dy":-34,"t":31548},{"dx":-15,"dy":-39,"t":31613},{"dx":-13,"dy":-42,"t":31654},{"dx":-41,"dy":-40,"t":31729},{"dx":-75,"dy":-26,"t":31769},{"dx":-95,"dy":-17,"t":31828},{"dx":-94,"dy":-15,"t":31869},{"dx":-121,"dy":-13,"t":31931},{"dx":-131,"dy":-8,"t":31969},{"dx":-140,"dy":1,"t":32033},{"dx":-142,"dy":4,"t":32072},{"dx":-147,"dy":12,"t":32133},{"dx":-150,"dy":16,"t":32179},{"dx":-128,"dy":24,"t":32261},{"dx":-107,"dy":28,"t":32303},{"dx":-106,"dy":-7,"t":32374},{"dx":-112,"dy":-20,"t":32417},{"dx":-103,"dy":-33,"t":32482},{"dx":-90,"dy":-34,"t":32526},{"dx":-64,"dy":-9,"t":32590},{"dx":-53,"dy":5,"t":32630},{"dx":-54,"dy":12,"t":32695},{"dx":-63,"dy":11,"t":32743},{"dx":-30,"dy":10,"t":32819},{"dx":-26,"dy":4,"t":32863},{"dx":-28,"dy":-17,"t":32927},{"dx":-23,"dy":-27,"t":32967},{"dx":-22,"dy":-40,"t":33025},{"dx":-22,"dy":-32,"t":33065},{"dx":-21,"dy":-26,"t":33126},{"dx":-37,"dy":-28,"t":33165},{"dx":-69,"dy":-34,"t":33227},{"dx":-64,"dy":-34,"t":33270},{"dx":-58,"dy":-29,"t":33333},{"dx":-56,"dy":-15,"t":33383},{"dx":-69,"dy":5,"t":33455},{"dx":-81,"dy":11,"t":33504},{"dx":-48,"dy":10,"t":33544}],[{"dx":-26,"dy":-28,"t":34558},{"dx":111,"dy":-7,"t":34623},{"dx":192,"dy":8,"t":34664},{"dx":251,"dy":91,"t":34729},{"dx":238,"dy":114,"t":34770},{"dx":299,"dy":138,"t":34833},{"dx":308,"dy":137,"t":34873},{"dx":187,"dy":151,"t":34936},{"dx":127,"dy":150,"t":34978},{"dx":58,"dy":138,"t":35041},{"dx":26,"dy":126,"t":35084},{"dx":-41,"dy":110,"t":35149},{"dx":-58,"dy":101,"t":35218},{"dx":-86,"dy":73,"t":35356},{"dx":-91,"dy":59,"t":35431},{"dx":-50,"dy":58,"t":35573},{"dx":-22,"dy":60,"t":35674},{"dx":-43,"dy":40,"t":35804},{"dx":-42,"dy":30,"t":35852},{"dx":-37,"dy":38,"t":35917},{"dx":-42,"dy":41,"t":35959},{"dx":-22,"dy":31,"t":36131},{"dx":-31,"dy":31,"t":36183},{"dx":-31,"dy":16,"t":36249},{"dx":-38,"dy":23,"t":36289},{"dx":-36,"dy":-3,"t":36351},{"dx":-23,"dy":-19,"t":36451},{"dx":-33,"dy":-28,"t":36554},{"dx":-29,"dy":-18,"t":36719},{"dx":-38,"dy":-5,"t":36771}],[{"dx":-58,"dy":61,"t":37708},{"dx":-69,"dy":24,"t":37748},{"dx":-49,"dy":-6,"t":37816},{"dx":-30,"dy":-9,"t":37860},{"dx":-8,"dy":-41,"t":37922},{"dx":12,"dy":-53,"t":37962},{"dx":38,"dy":-71,"t":38023},{"dx":45,"dy":-78,"t":38063},{"dx":76,"dy":-80,"t":38127},{"dx":78,"dy":-72,"t":38168},{"dx":74,"dy":-64,"t":38230},{"dx":69,"dy":-64,"t":38270},{"dx":42,"dy":-86,"t":38330},{"dx":29,"dy":-92,"t":38369},{"dx":21,"dy":-94,"t":38428},{"dx":16,"dy":-94,"t":38468},{"dx":2,"dy":-71,"t":38538},{"dx":-5,"dy":-52,"t":38579},{"dx":10,"dy":-12,"t":38653},{"dx":18,"dy":0,"t":38705},{"dx":48,"dy":-32,"t":38766},{"dx":63,"dy":-48,"t":38805},{"dx":77,"dy":-46,"t":38865},{"dx":78,"dy":-33,"t":38904},{"dx":68,"dy":27,"t":38967},{"dx":37,"dy":56,"t":39007},{"dx":12,"dy":47,"t":39075},{"dx":25,"dy":58,"t":39114},{"dx":21,"dy":59,"t":39176},{"dx":24,"dy":61,"t":39215},{"dx":32,"dy":62,"t":39278},{"dx":38,"dy":61,"t":39317},{"dx":32,"dy":57,"t":39385},{"dx":24,"dy":54,"t":39426},{"dx":27,"dy":31,"t":39486},{"dx":32,"dy":36,"t":39535},{"dx":46,"dy":72,"t":39597}]],"percent_in_roi":[77.77777777777779,60,92.3076923076923,87.17948717948718,92.10526315789474,75,70,100,21.052631578947366,95,97.36842105263158,76.66666666666667,100],"average_offset":[{"x":-50.22222222222222,"y":65.18518518518519,"r":77.72369371792459},{"x":-74.4,"y":63.36666666666667,"r":120.41149028667789},{"x":36.02564102564103,"y":-12.41025641025641,"r":61.97571686237171},{"x":58.23076923076923,"y":58.92307692307692,"r":36.120279016267546},{"x":-84.71052631578948,"y":-61.73684210526316,"r":72.2313671861599},{"x":74.175,"y":15.375,"r":149.90120323320372},{"x":-53.725,"y":-67.375,"r":115.49347860151775},{"x":-39.8235294117647,"y":35.94117647058823,"r":28.799089278180222},{"x":-78.73684210526316,"y":143.47368421052633,"r":104.26423390076832},{"x":-72.175,"y":32.4,"r":49.913625764658285},{"x":-71.60526315789474,"y":-12.263157894736842,"r":61.780950463321105},{"x":32.6,"y":55.2,"r":139.11074046111307},{"x":26.89189189189189,"y":-11.675675675675675,"r":68.42639057910655}],"samples_per_sec":"14.46","clicks":25,"pattern":"cond","trial_type":"webgazer-validate","trial_index":19,"time_elapsed":171885,"internal_node_id":"0.0-10.0-3.1","validation_points":[[15,15],[37.5,37.5],[75,25],[85,15],[50,50],[25,75],[85,85],[75,75],[62.5,37.5],[25,25],[62.5,62.5],[37.5,62.5],[15,85]],"user_agent":"Mozilla/5.0 (Macintosh; Intel Mac OS X 10_13_5) AppleWebKit/537.36 (KHTML, like Gecko) Chrome/88.0.4324.150 Safari/537.36","screen_width_px":1280,"screen_height_px":800},{"rt":1746.8349999981,"stimulus":"\n      <p>Round complete.</p>\n      <p>You can move a little bit, but please try to return you head to the same general location before continuing.</p>\n    ","response":0,"trial_type":"html-button-response","trial_index":20,"time_elapsed":173634,"internal_node_id":"0.0-10.0-4.1","user_agent":"Mozilla/5.0 (Macintosh; Intel Mac OS X 10_13_5) AppleWebKit/537.36 (KHTML, like Gecko) Chrome/88.0.4324.150 Safari/537.36","screen_width_px":1280,"screen_height_px":800},{"trial_type":"webgazer-init-camera","trial_index":21,"time_elapsed":175778,"internal_node_id":"0.0-10.0-5.1","user_agent":"Mozilla/5.0 (Macintosh; Intel Mac OS X 10_13_5) AppleWebKit/537.36 (KHTML, like Gecko) Chrome/88.0.4324.150 Safari/537.36","screen_width_px":1280,"screen_height_px":800},{"rt":1189.4699999829754,"stimulus":"\n      <p>Calibration phase next.</p>\n      <p>Click on the dots.</p>\n    ","response":0,"trial_type":"html-button-response","trial_index":22,"time_elapsed":176969,"internal_node_id":"0.0-10.0-0.2","user_agent":"Mozilla/5.0 (Macintosh; Intel Mac OS X 10_13_5) AppleWebKit/537.36 (KHTML, like Gecko) Chrome/88.0.4324.150 Safari/537.36","screen_width_px":1280,"screen_height_px":800},{"trial_type":"webgazer-calibrate","trial_index":23,"time_elapsed":195568,"internal_node_id":"0.0-10.0-1.2","user_agent":"Mozilla/5.0 (Macintosh; Intel Mac OS X 10_13_5) AppleWebKit/537.36 (KHTML, like Gecko) Chrome/88.0.4324.150 Safari/537.36","screen_width_px":1280,"screen_height_px":800},{"rt":942.8850000258535,"stimulus":"\n      <p>Validation phase next.</p>\n      <p>Look at the dots.</p>\n    ","response":0,"trial_type":"html-button-response","trial_index":24,"time_elapsed":196512,"internal_node_id":"0.0-10.0-2.2","user_agent":"Mozilla/5.0 (Macintosh; Intel Mac OS X 10_13_5) AppleWebKit/537.36 (KHTML, like Gecko) Chrome/88.0.4324.150 Safari/537.36","screen_width_px":1280,"screen_height_px":800},{"raw_gaze":[[{"dx":25,"dy":-20,"t":1126},{"dx":79,"dy":-17,"t":1208},{"dx":89,"dy":-12,"t":1264},{"dx":110,"dy":0,"t":1362},{"dx":105,"dy":12,"t":1409},{"dx":106,"dy":14,"t":1480},{"dx":99,"dy":17,"t":1563},{"dx":121,"dy":11,"t":1677},{"dx":135,"dy":13,"t":1726},{"dx":143,"dy":9,"t":1791},{"dx":130,"dy":15,"t":1873},{"dx":96,"dy":13,"t":1944},{"dx":65,"dy":18,"t":2001},{"dx":28,"dy":26,"t":2077},{"dx":19,"dy":29,"t":2142},{"dx":15,"dy":42,"t":2227},{"dx":2,"dy":57,"t":2273},{"dx":38,"dy":60,"t":2341},{"dx":64,"dy":57,"t":2403},{"dx":74,"dy":45,"t":2479},{"dx":71,"dy":39,"t":2521},{"dx":67,"dy":23,"t":2587},{"dx":55,"dy":23,"t":2657},{"dx":49,"dy":7,"t":2752},{"dx":47,"dy":0,"t":2816},{"dx":60,"dy":-8,"t":2908},{"dx":72,"dy":-10,"t":2975},{"dx":71,"dy":-15,"t":3039},{"dx":61,"dy":-18,"t":3083},{"dx":44,"dy":-8,"t":3182}],[{"dx":2,"dy":170,"t":4189},{"dx":-19,"dy":160,"t":4243},{"dx":-24,"dy":129,"t":4330},{"dx":-11,"dy":111,"t":4382},{"dx":8,"dy":84,"t":4465},{"dx":16,"dy":74,"t":4516},{"dx":58,"dy":56,"t":4600},{"dx":94,"dy":49,"t":4658},{"dx":125,"dy":47,"t":4740},{"dx":129,"dy":51,"t":4790},{"dx":123,"dy":42,"t":4866},{"dx":115,"dy":31,"t":4912},{"dx":105,"dy":29,"t":4993},{"dx":104,"dy":35,"t":5048},{"dx":107,"dy":40,"t":5132},{"dx":102,"dy":43,"t":5191},{"dx":95,"dy":45,"t":5279},{"dx":96,"dy":46,"t":5323},{"dx":47,"dy":68,"t":5402},{"dx":29,"dy":79,"t":5456},{"dx":8,"dy":89,"t":5525},{"dx":3,"dy":90,"t":5565},{"dx":-2,"dy":61,"t":5626},{"dx":-3,"dy":37,"t":5668},{"dx":-28,"dy":22,"t":5734},{"dx":-58,"dy":10,"t":5779},{"dx":-63,"dy":11,"t":5841},{"dx":-44,"dy":20,"t":5894},{"dx":12,"dy":26,"t":5957},{"dx":54,"dy":44,"t":5998},{"dx":83,"dy":54,"t":6078},{"dx":71,"dy":52,"t":6201},{"dx":50,"dy":50,"t":6297}],[{"dx":-159,"dy":52,"t":7226},{"dx":-146,"dy":61,"t":7334},{"dx":-132,"dy":57,"t":7384},{"dx":-145,"dy":37,"t":7464},{"dx":-157,"dy":38,"t":7513},{"dx":-162,"dy":59,"t":7583},{"dx":-155,"dy":73,"t":7629},{"dx":-141,"dy":84,"t":7707},{"dx":-135,"dy":84,"t":7775},{"dx":-153,"dy":65,"t":7859},{"dx":-157,"dy":52,"t":7913},{"dx":-179,"dy":46,"t":7995},{"dx":-202,"dy":46,"t":8043},{"dx":-174,"dy":57,"t":8111},{"dx":-138,"dy":64,"t":8166},{"dx":-150,"dy":60,"t":8239},{"dx":-161,"dy":56,"t":8296},{"dx":-177,"dy":47,"t":8372},{"dx":-182,"dy":44,"t":8420},{"dx":-201,"dy":43,"t":8503},{"dx":-207,"dy":43,"t":8561},{"dx":-203,"dy":47,"t":8636},{"dx":-179,"dy":49,"t":8692},{"dx":-159,"dy":41,"t":8769},{"dx":-157,"dy":63,"t":8813},{"dx":-167,"dy":32,"t":8881},{"dx":-172,"dy":22,"t":8927},{"dx":-173,"dy":20,"t":9002},{"dx":-181,"dy":17,"t":9073},{"dx":-161,"dy":35,"t":9173},{"dx":-152,"dy":45,"t":9310},{"dx":-162,"dy":41,"t":9351}],[{"dx":-44,"dy":-90,"t":10316},{"dx":-29,"dy":-87,"t":10400},{"dx":-15,"dy":-85,"t":10443},{"dx":-4,"dy":-72,"t":10507},{"dx":-4,"dy":-62,"t":10548},{"dx":-47,"dy":-52,"t":10613},{"dx":-66,"dy":-47,"t":10653},{"dx":-35,"dy":-38,"t":10714},{"dx":-22,"dy":-35,"t":10756},{"dx":-62,"dy":-25,"t":10815},{"dx":-80,"dy":-17,"t":10855},{"dx":-66,"dy":-4,"t":10915},{"dx":-41,"dy":1,"t":10953},{"dx":-48,"dy":9,"t":11013},{"dx":-68,"dy":6,"t":11055},{"dx":-88,"dy":8,"t":11116},{"dx":-91,"dy":12,"t":11155},{"dx":-108,"dy":18,"t":11217},{"dx":-120,"dy":20,"t":11257},{"dx":-65,"dy":40,"t":11318},{"dx":-52,"dy":55,"t":11358},{"dx":-48,"dy":57,"t":11430},{"dx":-54,"dy":49,"t":11471},{"dx":-29,"dy":26,"t":11537},{"dx":-8,"dy":15,"t":11577},{"dx":21,"dy":29,"t":11641},{"dx":37,"dy":37,"t":11692},{"dx":28,"dy":47,"t":11754},{"dx":23,"dy":55,"t":11793},{"dx":17,"dy":70,"t":11857},{"dx":16,"dy":76,"t":11895},{"dx":-44,"dy":27,"t":11958},{"dx":-64,"dy":7,"t":12010},{"dx":-72,"dy":-8,"t":12074},{"dx":-65,"dy":-6,"t":12121},{"dx":-66,"dy":-11,"t":12182},{"dx":-72,"dy":-17,"t":12285},{"dx":-90,"dy":-29,"t":12323}],[{"dx":-29,"dy":-66,"t":13246},{"dx":-39,"dy":-76,"t":13314},{"dx":-45,"dy":-84,"t":13353},{"dx":-18,"dy":-95,"t":13417},{"dx":-14,"dy":-103,"t":13462},{"dx":-5,"dy":-67,"t":13525},{"dx":5,"dy":-49,"t":13567},{"dx":28,"dy":-18,"t":13733},{"dx":41,"dy":-5,"t":13770},{"dx":33,"dy":14,"t":13831},{"dx":34,"dy":14,"t":13872},{"dx":26,"dy":24,"t":13933},{"dx":18,"dy":32,"t":13972},{"dx":25,"dy":15,"t":14037},{"dx":35,"dy":-6,"t":14077},{"dx":19,"dy":-31,"t":14150},{"dx":13,"dy":-57,"t":14191},{"dx":5,"dy":-69,"t":14253},{"dx":3,"dy":-66,"t":14294},{"dx":-7,"dy":-44,"t":14354},{"dx":-15,"dy":-27,"t":14395},{"dx":42,"dy":-60,"t":14458},{"dx":59,"dy":-71,"t":14505},{"dx":50,"dy":-58,"t":14564},{"dx":61,"dy":-71,"t":14603},{"dx":34,"dy":-45,"t":14663},{"dx":51,"dy":-52,"t":14704},{"dx":77,"dy":-70,"t":14765},{"dx":75,"dy":-67,"t":14811},{"dx":112,"dy":-103,"t":14883},{"dx":124,"dy":-111,"t":14930},{"dx":126,"dy":-134,"t":14988},{"dx":118,"dy":-136,"t":15027},{"dx":81,"dy":-107,"t":15087},{"dx":67,"dy":-96,"t":15126},{"dx":46,"dy":-76,"t":15185},{"dx":41,"dy":-68,"t":15294},{"dx":86,"dy":-91,"t":15331}],[{"dx":76,"dy":128,"t":16279},{"dx":77,"dy":120,"t":16340},{"dx":96,"dy":114,"t":16378},{"dx":96,"dy":107,"t":16455},{"dx":101,"dy":92,"t":16493},{"dx":108,"dy":79,"t":16554},{"dx":118,"dy":68,"t":16593},{"dx":106,"dy":57,"t":16653},{"dx":71,"dy":69,"t":16697},{"dx":21,"dy":91,"t":16771},{"dx":4,"dy":100,"t":16811},{"dx":-27,"dy":107,"t":16872},{"dx":-31,"dy":98,"t":16910},{"dx":-17,"dy":73,"t":16973},{"dx":-7,"dy":64,"t":17010},{"dx":46,"dy":42,"t":17070},{"dx":75,"dy":30,"t":17109},{"dx":101,"dy":24,"t":17172},{"dx":83,"dy":20,"t":17216},{"dx":83,"dy":33,"t":17280},{"dx":70,"dy":41,"t":17320},{"dx":63,"dy":36,"t":17381},{"dx":68,"dy":25,"t":17421},{"dx":16,"dy":35,"t":17485},{"dx":-12,"dy":38,"t":17526},{"dx":-46,"dy":45,"t":17585},{"dx":-54,"dy":48,"t":17627},{"dx":-40,"dy":63,"t":17686},{"dx":-24,"dy":74,"t":17729},{"dx":17,"dy":76,"t":17808},{"dx":33,"dy":72,"t":17847},{"dx":68,"dy":78,"t":17918},{"dx":85,"dy":86,"t":17965},{"dx":80,"dy":85,"t":18029},{"dx":63,"dy":79,"t":18073},{"dx":31,"dy":90,"t":18131},{"dx":19,"dy":86,"t":18170},{"dx":4,"dy":74,"t":18233},{"dx":-10,"dy":67,"t":18276},{"dx":-1,"dy":64,"t":18374}],[{"dx":107,"dy":13,"t":19337},{"dx":112,"dy":10,"t":19381},{"dx":108,"dy":42,"t":19447},{"dx":94,"dy":53,"t":19488},{"dx":84,"dy":62,"t":19556},{"dx":87,"dy":63,"t":19599},{"dx":72,"dy":52,"t":19661},{"dx":63,"dy":54,"t":19703},{"dx":44,"dy":70,"t":19768},{"dx":36,"dy":83,"t":19808},{"dx":28,"dy":94,"t":19873},{"dx":56,"dy":87,"t":19912},{"dx":39,"dy":83,"t":19972},{"dx":23,"dy":88,"t":20020},{"dx":44,"dy":78,"t":20083},{"dx":54,"dy":73,"t":20125},{"dx":51,"dy":68,"t":20190},{"dx":40,"dy":68,"t":20237},{"dx":31,"dy":73,"t":20300},{"dx":51,"dy":79,"t":20341},{"dx":1,"dy":100,"t":20402},{"dx":-24,"dy":109,"t":20445},{"dx":-24,"dy":112,"t":20509},{"dx":-5,"dy":108,"t":20551},{"dx":24,"dy":101,"t":20618},{"dx":31,"dy":97,"t":20658},{"dx":31,"dy":92,"t":20718},{"dx":31,"dy":91,"t":20764},{"dx":56,"dy":88,"t":20828},{"dx":78,"dy":86,"t":20868},{"dx":107,"dy":86,"t":20928},{"dx":100,"dy":80,"t":20971},{"dx":93,"dy":83,"t":21035},{"dx":91,"dy":90,"t":21078},{"dx":61,"dy":84,"t":21145},{"dx":58,"dy":90,"t":21191},{"dx":48,"dy":100,"t":21259},{"dx":41,"dy":98,"t":21301},{"dx":32,"dy":105,"t":21394}],[{"dx":-144,"dy":-121,"t":22340},{"dx":-126,"dy":-117,"t":22432},{"dx":-114,"dy":-123,"t":22473},{"dx":-89,"dy":-117,"t":22533},{"dx":-90,"dy":-115,"t":22572},{"dx":-99,"dy":-105,"t":22632},{"dx":-114,"dy":-102,"t":22671},{"dx":-130,"dy":-91,"t":22733},{"dx":-132,"dy":-84,"t":22777},{"dx":-127,"dy":30,"t":22841},{"dx":-134,"dy":133,"t":22880},{"dx":-111,"dy":335,"t":22940},{"dx":-117,"dy":432,"t":22981},{"dx":-104,"dy":544,"t":23040},{"dx":-60,"dy":570,"t":23079},{"dx":-36,"dy":574,"t":23138},{"dx":-33,"dy":556,"t":23182},{"dx":-51,"dy":464,"t":23242},{"dx":-76,"dy":408,"t":23281},{"dx":-113,"dy":319,"t":23342},{"dx":-125,"dy":280,"t":23381},{"dx":-165,"dy":214,"t":23442},{"dx":-168,"dy":190,"t":23486},{"dx":-178,"dy":142,"t":23564},{"dx":-189,"dy":119,"t":23605},{"dx":-175,"dy":100,"t":23677},{"dx":-173,"dy":97,"t":23719},{"dx":-170,"dy":93,"t":23787},{"dx":-176,"dy":89,"t":23827},{"dx":-164,"dy":78,"t":23920},{"dx":-156,"dy":74,"t":23960},{"dx":-174,"dy":77,"t":24023},{"dx":-176,"dy":71,"t":24077},{"dx":-155,"dy":77,"t":24142},{"dx":-135,"dy":87,"t":24181},{"dx":-101,"dy":91,"t":24241},{"dx":-82,"dy":81,"t":24279},{"dx":-57,"dy":71,"t":24348},{"dx":-38,"dy":69,"t":24423}],[{"dx":-43,"dy":239,"t":25390},{"dx":-38,"dy":226,"t":25450},{"dx":-42,"dy":202,"t":25515},{"dx":-48,"dy":192,"t":25555},{"dx":-82,"dy":170,"t":25623},{"dx":-100,"dy":161,"t":25666},{"dx":-116,"dy":166,"t":25728},{"dx":-117,"dy":177,"t":25768},{"dx":-112,"dy":183,"t":25835},{"dx":-92,"dy":182,"t":25888},{"dx":-79,"dy":175,"t":25965},{"dx":-98,"dy":185,"t":26018},{"dx":-61,"dy":173,"t":26098},{"dx":-40,"dy":164,"t":26163},{"dx":-1,"dy":145,"t":26247},{"dx":3,"dy":139,"t":26296},{"dx":-26,"dy":156,"t":26363},{"dx":-46,"dy":162,"t":26401},{"dx":0,"dy":155,"t":26462},{"dx":-16,"dy":159,"t":26502},{"dx":-6,"dy":154,"t":26564},{"dx":-2,"dy":156,"t":26608},{"dx":-42,"dy":127,"t":26670},{"dx":-46,"dy":114,"t":26711},{"dx":-49,"dy":107,"t":26771},{"dx":-70,"dy":105,"t":26817},{"dx":-81,"dy":107,"t":26879},{"dx":-77,"dy":109,"t":26919},{"dx":-90,"dy":113,"t":26983},{"dx":-90,"dy":116,"t":27021},{"dx":-86,"dy":110,"t":27081},{"dx":-81,"dy":103,"t":27120},{"dx":-98,"dy":117,"t":27187},{"dx":-98,"dy":128,"t":27227},{"dx":-109,"dy":170,"t":27293},{"dx":-115,"dy":189,"t":27394},{"dx":-99,"dy":196,"t":27432}],[{"dx":-267,"dy":166,"t":28370},{"dx":-264,"dy":162,"t":28430},{"dx":-274,"dy":158,"t":28471},{"dx":-272,"dy":156,"t":28532},{"dx":-264,"dy":157,"t":28575},{"dx":-228,"dy":145,"t":28636},{"dx":-204,"dy":133,"t":28675},{"dx":-160,"dy":135,"t":28736},{"dx":-144,"dy":136,"t":28777},{"dx":-166,"dy":165,"t":28863},{"dx":-187,"dy":182,"t":28908},{"dx":-191,"dy":184,"t":28970},{"dx":-189,"dy":185,"t":29007},{"dx":-134,"dy":172,"t":29066},{"dx":-109,"dy":160,"t":29107},{"dx":-77,"dy":149,"t":29180},{"dx":-67,"dy":149,"t":29220},{"dx":-59,"dy":163,"t":29280},{"dx":-70,"dy":172,"t":29325},{"dx":-71,"dy":181,"t":29387},{"dx":-61,"dy":183,"t":29426},{"dx":-68,"dy":182,"t":29488},{"dx":-67,"dy":178,"t":29527},{"dx":-119,"dy":161,"t":29590},{"dx":-137,"dy":142,"t":29636},{"dx":-165,"dy":137,"t":29696},{"dx":-171,"dy":135,"t":29738},{"dx":-202,"dy":135,"t":29799},{"dx":-208,"dy":141,"t":29840},{"dx":-211,"dy":146,"t":29899},{"dx":-215,"dy":154,"t":29938},{"dx":-182,"dy":149,"t":30000},{"dx":-143,"dy":153,"t":30040},{"dx":-112,"dy":148,"t":30100},{"dx":-99,"dy":144,"t":30152},{"dx":-100,"dy":161,"t":30213},{"dx":-93,"dy":166,"t":30254},{"dx":-94,"dy":161,"t":30313},{"dx":-73,"dy":157,"t":30356},{"dx":-85,"dy":178,"t":30434}],[{"dx":-132,"dy":118,"t":31407},{"dx":-100,"dy":118,"t":31447},{"dx":-28,"dy":110,"t":31509},{"dx":2,"dy":104,"t":31547},{"dx":41,"dy":87,"t":31608},{"dx":51,"dy":77,"t":31653},{"dx":17,"dy":73,"t":31717},{"dx":4,"dy":70,"t":31756},{"dx":-25,"dy":60,"t":31819},{"dx":-43,"dy":55,"t":31871},{"dx":-90,"dy":52,"t":31933},{"dx":-104,"dy":53,"t":32000},{"dx":-123,"dy":80,"t":32066},{"dx":-139,"dy":93,"t":32107},{"dx":-150,"dy":110,"t":32182},{"dx":-147,"dy":115,"t":32223},{"dx":-121,"dy":117,"t":32281},{"dx":-102,"dy":115,"t":32320},{"dx":-35,"dy":108,"t":32379},{"dx":-1,"dy":105,"t":32419},{"dx":21,"dy":132,"t":32485},{"dx":30,"dy":131,"t":32524},{"dx":31,"dy":141,"t":32583},{"dx":34,"dy":141,"t":32621},{"dx":29,"dy":144,"t":32681},{"dx":23,"dy":145,"t":32724},{"dx":-18,"dy":143,"t":32798},{"dx":-42,"dy":132,"t":32838},{"dx":-59,"dy":121,"t":32907},{"dx":-60,"dy":119,"t":32946},{"dx":-65,"dy":109,"t":33007},{"dx":-77,"dy":110,"t":33056},{"dx":-69,"dy":114,"t":33119},{"dx":-54,"dy":116,"t":33170},{"dx":-53,"dy":116,"t":33235},{"dx":-48,"dy":114,"t":33276},{"dx":-44,"dy":119,"t":33337},{"dx":-38,"dy":114,"t":33438},{"dx":-50,"dy":130,"t":33477}],[{"dx":-212,"dy":471,"t":34442},{"dx":-179,"dy":483,"t":34508},{"dx":-176,"dy":481,"t":34573},{"dx":-127,"dy":435,"t":34705},{"dx":-101,"dy":403,"t":34756},{"dx":-80,"dy":337,"t":34817},{"dx":-96,"dy":311,"t":34862},{"dx":-112,"dy":271,"t":34927},{"dx":-113,"dy":255,"t":34965},{"dx":-94,"dy":208,"t":35030},{"dx":-86,"dy":201,"t":35072},{"dx":-106,"dy":187,"t":35135},{"dx":-125,"dy":177,"t":35190},{"dx":-123,"dy":195,"t":35253},{"dx":-129,"dy":203,"t":35292},{"dx":-142,"dy":208,"t":35352},{"dx":-151,"dy":219,"t":35391},{"dx":-146,"dy":223,"t":35448},{"dx":-134,"dy":218,"t":35492},{"dx":-128,"dy":202,"t":35553},{"dx":-131,"dy":192,"t":35591},{"dx":-107,"dy":209,"t":35661},{"dx":-97,"dy":216,"t":35701},{"dx":-109,"dy":240,"t":35768},{"dx":-115,"dy":254,"t":35813},{"dx":-96,"dy":254,"t":35873},{"dx":-87,"dy":256,"t":35916},{"dx":-74,"dy":235,"t":35976},{"dx":-67,"dy":221,"t":36018},{"dx":-55,"dy":214,"t":36080},{"dx":-55,"dy":209,"t":36120},{"dx":-71,"dy":209,"t":36188},{"dx":-85,"dy":204,"t":36228},{"dx":-85,"dy":205,"t":36288},{"dx":-86,"dy":215,"t":36327},{"dx":-75,"dy":210,"t":36386},{"dx":-75,"dy":212,"t":36429},{"dx":-77,"dy":215,"t":36524}],[{"dx":-58,"dy":138,"t":37481},{"dx":-48,"dy":142,"t":37522},{"dx":-27,"dy":144,"t":37582},{"dx":-18,"dy":144,"t":37624},{"dx":-12,"dy":148,"t":37683},{"dx":-14,"dy":153,"t":37727},{"dx":-33,"dy":153,"t":37786},{"dx":-37,"dy":148,"t":37830},{"dx":-38,"dy":146,"t":37899},{"dx":-41,"dy":151,"t":37937},{"dx":-41,"dy":161,"t":38002},{"dx":-45,"dy":165,"t":38048},{"dx":-35,"dy":174,"t":38125},{"dx":-23,"dy":178,"t":38165},{"dx":-17,"dy":188,"t":38240},{"dx":-20,"dy":194,"t":38290},{"dx":-49,"dy":174,"t":38356},{"dx":-63,"dy":161,"t":38399},{"dx":-49,"dy":139,"t":38495},{"dx":-29,"dy":134,"t":38578},{"dx":-16,"dy":112,"t":38644},{"dx":-15,"dy":101,"t":38688},{"dx":-15,"dy":71,"t":38751},{"dx":-23,"dy":58,"t":38789},{"dx":-16,"dy":41,"t":38848},{"dx":-21,"dy":37,"t":38895},{"dx":4,"dy":54,"t":38956},{"dx":7,"dy":52,"t":39004},{"dx":-1,"dy":74,"t":39076},{"dx":-3,"dy":80,"t":39120},{"dx":2,"dy":103,"t":39181},{"dx":0,"dy":103,"t":39223},{"dx":-5,"dy":101,"t":39285},{"dx":-8,"dy":100,"t":39322},{"dx":-24,"dy":101,"t":39383},{"dx":-16,"dy":97,"t":39423}]],"percent_in_roi":[100,93.93939393939394,6.25,100,89.47368421052632,100,100,20.51282051282051,32.432432432432435,0,82.05128205128204,0,63.888888888888886],"average_offset":[{"x":71.33333333333333,"y":14.066666666666666,"r":50.55550630535018},{"x":41.93939393939394,"y":59.24242424242424,"r":55.65888004134096},{"x":-164.96875,"y":49.375,"r":27.037440935955185},{"x":-42.76315789473684,"y":-0.5526315789473685,"r":75.24873282575454},{"x":35.86842105263158,"y":-57.36842105263158,"r":75.30213357840836},{"x":40.25,"y":69.45,"r":78.68723879191543},{"x":52.666666666666664,"y":79.3076923076923,"r":27.972525733721906},{"x":-121.97435897435898,"y":140.76923076923077,"r":110.8831797565605},{"x":-64.67567567567568,"y":154.9189189189189,"r":49.723596860377874},{"x":-150.05,"y":158.025,"r":87.34043842448472},{"x":-44.46153846153846,"y":107.97435897435898,"r":56.436107130401794},{"x":-108.07894736842105,"y":254.1578947368421,"r":82.84800625643652},{"x":-23.52777777777778,"y":122.77777777777777,"r":48.88932481943449}],"samples_per_sec":"17.23","clicks":15,"pattern":"spread","trial_type":"webgazer-validate","trial_index":25,"time_elapsed":236958,"internal_node_id":"0.0-10.0-3.2","validation_points":[[15,15],[15,85],[85,85],[75,25],[25,25],[25,75],[85,15],[62.5,37.5],[75,75],[62.5,62.5],[37.5,62.5],[50,50],[37.5,37.5]],"user_agent":"Mozilla/5.0 (Macintosh; Intel Mac OS X 10_13_5) AppleWebKit/537.36 (KHTML, like Gecko) Chrome/88.0.4324.150 Safari/537.36","screen_width_px":1280,"screen_height_px":800},{"rt":1843.735000002198,"stimulus":"\n      <p>Round complete.</p>\n      <p>You can move a little bit, but please try to return you head to the same general location before continuing.</p>\n    ","response":0,"trial_type":"html-button-response","trial_index":26,"time_elapsed":238804,"internal_node_id":"0.0-10.0-4.2","user_agent":"Mozilla/5.0 (Macintosh; Intel Mac OS X 10_13_5) AppleWebKit/537.36 (KHTML, like Gecko) Chrome/88.0.4324.150 Safari/537.36","screen_width_px":1280,"screen_height_px":800},{"trial_type":"webgazer-init-camera","trial_index":27,"time_elapsed":244930,"internal_node_id":"0.0-10.0-5.2","user_agent":"Mozilla/5.0 (Macintosh; Intel Mac OS X 10_13_5) AppleWebKit/537.36 (KHTML, like Gecko) Chrome/88.0.4324.150 Safari/537.36","screen_width_px":1280,"screen_height_px":800},{"rt":890.3500000014901,"stimulus":"\n      <p>Calibration phase next.</p>\n      <p>Click on the dots.</p>\n    ","response":0,"trial_type":"html-button-response","trial_index":28,"time_elapsed":245823,"internal_node_id":"0.0-10.0-0.3","user_agent":"Mozilla/5.0 (Macintosh; Intel Mac OS X 10_13_5) AppleWebKit/537.36 (KHTML, like Gecko) Chrome/88.0.4324.150 Safari/537.36","screen_width_px":1280,"screen_height_px":800},{"trial_type":"webgazer-calibrate","trial_index":29,"time_elapsed":262405,"internal_node_id":"0.0-10.0-1.3","user_agent":"Mozilla/5.0 (Macintosh; Intel Mac OS X 10_13_5) AppleWebKit/537.36 (KHTML, like Gecko) Chrome/88.0.4324.150 Safari/537.36","screen_width_px":1280,"screen_height_px":800},{"rt":811.0150001011789,"stimulus":"\n      <p>Validation phase next.</p>\n      <p>Look at the dots.</p>\n    ","response":0,"trial_type":"html-button-response","trial_index":30,"time_elapsed":263217,"internal_node_id":"0.0-10.0-2.3","user_agent":"Mozilla/5.0 (Macintosh; Intel Mac OS X 10_13_5) AppleWebKit/537.36 (KHTML, like Gecko) Chrome/88.0.4324.150 Safari/537.36","screen_width_px":1280,"screen_height_px":800},{"raw_gaze":[[{"dx":-82,"dy":64,"t":1116},{"dx":-82,"dy":61,"t":1180},{"dx":-77,"dy":58,"t":1224},{"dx":-4,"dy":33,"t":1290},{"dx":-10,"dy":30,"t":1330},{"dx":-11,"dy":24,"t":1392},{"dx":9,"dy":24,"t":1431},{"dx":5,"dy":35,"t":1501},{"dx":4,"dy":40,"t":1541},{"dx":-15,"dy":49,"t":1602},{"dx":-31,"dy":54,"t":1642},{"dx":-60,"dy":65,"t":1705},{"dx":-72,"dy":68,"t":1745},{"dx":-64,"dy":59,"t":1805},{"dx":-49,"dy":47,"t":1847},{"dx":-12,"dy":29,"t":1911},{"dx":-6,"dy":28,"t":1949},{"dx":-58,"dy":14,"t":2012},{"dx":-70,"dy":16,"t":2057},{"dx":-37,"dy":18,"t":2136},{"dx":-20,"dy":16,"t":2176},{"dx":-16,"dy":3,"t":2237},{"dx":-9,"dy":2,"t":2278},{"dx":-29,"dy":-11,"t":2340},{"dx":-41,"dy":-14,"t":2382},{"dx":4,"dy":-6,"t":2442},{"dx":20,"dy":0,"t":2485},{"dx":43,"dy":6,"t":2546},{"dx":49,"dy":7,"t":2585},{"dx":67,"dy":17,"t":2660},{"dx":85,"dy":24,"t":2704},{"dx":71,"dy":46,"t":2770},{"dx":86,"dy":45,"t":2823},{"dx":36,"dy":16,"t":2896},{"dx":35,"dy":0,"t":2991},{"dx":2,"dy":-9,"t":3064},{"dx":6,"dy":2,"t":3114},{"dx":24,"dy":15,"t":3157}],[{"dx":3,"dy":17,"t":4144},{"dx":42,"dy":9,"t":4235},{"dx":59,"dy":6,"t":4280},{"dx":83,"dy":9,"t":4347},{"dx":94,"dy":6,"t":4388},{"dx":90,"dy":12,"t":4449},{"dx":72,"dy":15,"t":4488},{"dx":68,"dy":28,"t":4548},{"dx":72,"dy":42,"t":4588},{"dx":45,"dy":48,"t":4649},{"dx":39,"dy":54,"t":4689},{"dx":57,"dy":62,"t":4749},{"dx":68,"dy":66,"t":4792},{"dx":88,"dy":69,"t":4868},{"dx":97,"dy":69,"t":4916},{"dx":92,"dy":72,"t":4976},{"dx":81,"dy":74,"t":5017},{"dx":75,"dy":80,"t":5081},{"dx":67,"dy":85,"t":5121},{"dx":77,"dy":84,"t":5185},{"dx":62,"dy":79,"t":5245},{"dx":158,"dy":69,"t":5404},{"dx":241,"dy":72,"t":5441},{"dx":493,"dy":41,"t":5503},{"dx":641,"dy":16,"t":5545},{"dx":821,"dy":-4,"t":5609},{"dx":877,"dy":-9,"t":5648},{"dx":979,"dy":-31,"t":5710},{"dx":1022,"dy":-43,"t":5751},{"dx":1046,"dy":-54,"t":5813},{"dx":1032,"dy":-59,"t":5852},{"dx":1046,"dy":-9,"t":5913},{"dx":1084,"dy":34,"t":5954},{"dx":899,"dy":120,"t":6015},{"dx":771,"dy":165,"t":6055},{"dx":474,"dy":210,"t":6124},{"dx":367,"dy":189,"t":6228},{"dx":122,"dy":147,"t":6267}],[{"dx":117,"dy":-23,"t":7211},{"dx":137,"dy":-29,"t":7278},{"dx":148,"dy":-34,"t":7320},{"dx":156,"dy":-53,"t":7394},{"dx":154,"dy":-61,"t":7444},{"dx":153,"dy":-20,"t":7517},{"dx":143,"dy":-1,"t":7564},{"dx":97,"dy":-3,"t":7643},{"dx":82,"dy":4,"t":7698},{"dx":55,"dy":8,"t":7783},{"dx":44,"dy":5,"t":7838},{"dx":1,"dy":3,"t":7935},{"dx":-31,"dy":6,"t":8092},{"dx":-37,"dy":5,"t":8204},{"dx":-23,"dy":11,"t":8328},{"dx":-37,"dy":28,"t":8483},{"dx":-59,"dy":38,"t":8550},{"dx":-66,"dy":47,"t":8609},{"dx":-94,"dy":49,"t":8649},{"dx":-25,"dy":44,"t":8710},{"dx":3,"dy":43,"t":8748},{"dx":49,"dy":13,"t":8809},{"dx":59,"dy":3,"t":8850},{"dx":79,"dy":-11,"t":8915},{"dx":90,"dy":-14,"t":8955},{"dx":40,"dy":-16,"t":9015},{"dx":24,"dy":-17,"t":9057},{"dx":-2,"dy":-21,"t":9119},{"dx":-13,"dy":-24,"t":9161},{"dx":-26,"dy":3,"t":9223},{"dx":-64,"dy":13,"t":9242}],[{"dx":-88,"dy":-25,"t":10283},{"dx":-98,"dy":-24,"t":10337},{"dx":-96,"dy":-32,"t":10405},{"dx":-95,"dy":-33,"t":10445},{"dx":-79,"dy":-38,"t":10506},{"dx":-65,"dy":-44,"t":10551},{"dx":-49,"dy":-46,"t":10614},{"dx":-45,"dy":-43,"t":10653},{"dx":-22,"dy":-49,"t":10716},{"dx":-14,"dy":-51,"t":10758},{"dx":14,"dy":-70,"t":10819},{"dx":18,"dy":-78,"t":10859},{"dx":17,"dy":-77,"t":10926},{"dx":13,"dy":-71,"t":10966},{"dx":-6,"dy":-55,"t":11029},{"dx":-19,"dy":-46,"t":11076},{"dx":-17,"dy":-42,"t":11140},{"dx":-13,"dy":-39,"t":11180},{"dx":-2,"dy":-38,"t":11240},{"dx":4,"dy":-38,"t":11283},{"dx":-6,"dy":-36,"t":11348},{"dx":-20,"dy":-33,"t":11387},{"dx":-34,"dy":-37,"t":11444},{"dx":-36,"dy":-43,"t":11487},{"dx":-56,"dy":-45,"t":11546},{"dx":-72,"dy":-43,"t":11584},{"dx":-81,"dy":-52,"t":11644},{"dx":-67,"dy":-45,"t":11688},{"dx":-74,"dy":-36,"t":11748},{"dx":-79,"dy":-35,"t":11787},{"dx":-93,"dy":-10,"t":11847},{"dx":-92,"dy":-3,"t":11888},{"dx":-81,"dy":2,"t":11957},{"dx":-69,"dy":-2,"t":11997},{"dx":-60,"dy":-2,"t":12059},{"dx":-47,"dy":-11,"t":12100},{"dx":-34,"dy":-16,"t":12161},{"dx":-25,"dy":-21,"t":12207},{"dx":-37,"dy":-28,"t":12275},{"dx":-50,"dy":-25,"t":12298}],[{"dx":-16,"dy":-67,"t":13326},{"dx":-11,"dy":-67,"t":13369},{"dx":8,"dy":-66,"t":13432},{"dx":20,"dy":-64,"t":13472},{"dx":17,"dy":-55,"t":13538},{"dx":5,"dy":-48,"t":13582},{"dx":9,"dy":-49,"t":13642},{"dx":22,"dy":-55,"t":13682},{"dx":53,"dy":-61,"t":13742},{"dx":71,"dy":-61,"t":13784},{"dx":100,"dy":-57,"t":13845},{"dx":113,"dy":-53,"t":13886},{"dx":72,"dy":-51,"t":13945},{"dx":44,"dy":-55,"t":13984},{"dx":43,"dy":-66,"t":14045},{"dx":51,"dy":-65,"t":14086},{"dx":67,"dy":-74,"t":14142},{"dx":68,"dy":-79,"t":14181},{"dx":78,"dy":-79,"t":14243},{"dx":85,"dy":-81,"t":14282},{"dx":118,"dy":-78,"t":14342},{"dx":148,"dy":-79,"t":14381},{"dx":176,"dy":-82,"t":14442},{"dx":178,"dy":-84,"t":14489},{"dx":166,"dy":-73,"t":14552},{"dx":159,"dy":-61,"t":14591},{"dx":157,"dy":-36,"t":14651},{"dx":161,"dy":-23,"t":14689},{"dx":166,"dy":-23,"t":14749},{"dx":173,"dy":-23,"t":14790},{"dx":145,"dy":-23,"t":14849},{"dx":129,"dy":-22,"t":14887},{"dx":127,"dy":-27,"t":14948},{"dx":138,"dy":-33,"t":14989},{"dx":154,"dy":-34,"t":15052},{"dx":161,"dy":-31,"t":15092},{"dx":148,"dy":-30,"t":15154},{"dx":137,"dy":-31,"t":15195},{"dx":123,"dy":-35,"t":15273},{"dx":124,"dy":-38,"t":15374},{"dx":92,"dy":-41,"t":15435}],[{"dx":101,"dy":42,"t":16345},{"dx":94,"dy":37,"t":16441},{"dx":90,"dy":34,"t":16490},{"dx":56,"dy":27,"t":16550},{"dx":37,"dy":32,"t":16590},{"dx":11,"dy":22,"t":16649},{"dx":8,"dy":11,"t":16690},{"dx":4,"dy":5,"t":16748},{"dx":5,"dy":8,"t":16788},{"dx":3,"dy":17,"t":16848},{"dx":0,"dy":22,"t":16886},{"dx":4,"dy":34,"t":16948},{"dx":10,"dy":39,"t":16988},{"dx":-7,"dy":47,"t":17049},{"dx":-3,"dy":48,"t":17089},{"dx":-4,"dy":51,"t":17148},{"dx":-7,"dy":54,"t":17190},{"dx":-4,"dy":42,"t":17250},{"dx":-1,"dy":44,"t":17294},{"dx":2,"dy":50,"t":17355},{"dx":1,"dy":54,"t":17396},{"dx":2,"dy":50,"t":17455},{"dx":3,"dy":46,"t":17500},{"dx":28,"dy":47,"t":17571},{"dx":20,"dy":47,"t":17610},{"dx":5,"dy":36,"t":17675},{"dx":33,"dy":27,"t":17714},{"dx":76,"dy":16,"t":17776},{"dx":92,"dy":12,"t":17817},{"dx":54,"dy":21,"t":17882},{"dx":39,"dy":23,"t":17922},{"dx":8,"dy":27,"t":17982},{"dx":-24,"dy":27,"t":18024},{"dx":-54,"dy":36,"t":18085},{"dx":-55,"dy":43,"t":18123},{"dx":-48,"dy":46,"t":18188},{"dx":-54,"dy":45,"t":18227},{"dx":-48,"dy":43,"t":18288},{"dx":-40,"dy":43,"t":18405},{"dx":-32,"dy":32,"t":18451}],[{"dx":-18,"dy":-33,"t":19395},{"dx":-19,"dy":-47,"t":19433},{"dx":-28,"dy":-76,"t":19494},{"dx":-14,"dy":-84,"t":19537},{"dx":-14,"dy":-10,"t":19600},{"dx":-18,"dy":18,"t":19642},{"dx":-34,"dy":-27,"t":19712},{"dx":-42,"dy":-44,"t":19757},{"dx":-25,"dy":-2,"t":19819},{"dx":-11,"dy":13,"t":19868},{"dx":-8,"dy":35,"t":19935},{"dx":-9,"dy":41,"t":19975},{"dx":-27,"dy":45,"t":20041},{"dx":-29,"dy":51,"t":20087},{"dx":-25,"dy":47,"t":20149},{"dx":-24,"dy":42,"t":20190},{"dx":-33,"dy":51,"t":20250},{"dx":-50,"dy":57,"t":20292},{"dx":-53,"dy":56,"t":20351},{"dx":-35,"dy":53,"t":20389},{"dx":-41,"dy":47,"t":20452},{"dx":-58,"dy":44,"t":20509},{"dx":-76,"dy":-10,"t":20592},{"dx":-77,"dy":-40,"t":20646},{"dx":-39,"dy":-64,"t":20725},{"dx":-27,"dy":-71,"t":20775},{"dx":-1,"dy":-80,"t":20862},{"dx":12,"dy":-84,"t":20911},{"dx":-5,"dy":-56,"t":20990},{"dx":-17,"dy":-44,"t":21067},{"dx":-49,"dy":-12,"t":21147},{"dx":-70,"dy":-5,"t":21197},{"dx":-72,"dy":11,"t":21280},{"dx":-62,"dy":19,"t":21338},{"dx":-51,"dy":29,"t":21413},{"dx":-50,"dy":32,"t":21507}],[{"dx":-15,"dy":171,"t":22407},{"dx":-14,"dy":164,"t":22471},{"dx":-12,"dy":156,"t":22510},{"dx":-30,"dy":147,"t":22585},{"dx":-47,"dy":146,"t":22625},{"dx":-58,"dy":127,"t":22687},{"dx":-60,"dy":117,"t":22730},{"dx":-72,"dy":100,"t":22795},{"dx":-81,"dy":93,"t":22833},{"dx":-81,"dy":82,"t":22895},{"dx":-75,"dy":77,"t":22943},{"dx":-61,"dy":74,"t":23007},{"dx":-73,"dy":73,"t":23048},{"dx":-47,"dy":81,"t":23125},{"dx":-39,"dy":86,"t":23166},{"dx":-47,"dy":109,"t":23228},{"dx":-53,"dy":117,"t":23268},{"dx":-62,"dy":123,"t":23327},{"dx":-67,"dy":123,"t":23368},{"dx":-80,"dy":121,"t":23427},{"dx":-87,"dy":119,"t":23470},{"dx":-80,"dy":109,"t":23532},{"dx":-68,"dy":102,"t":23578},{"dx":-47,"dy":96,"t":23640},{"dx":-38,"dy":97,"t":23685},{"dx":-25,"dy":98,"t":23749},{"dx":-21,"dy":98,"t":23790},{"dx":-17,"dy":93,"t":23853},{"dx":-11,"dy":93,"t":23899},{"dx":-25,"dy":89,"t":23963},{"dx":-28,"dy":87,"t":24005},{"dx":-37,"dy":86,"t":24067},{"dx":-43,"dy":88,"t":24108},{"dx":-76,"dy":85,"t":24168},{"dx":-89,"dy":85,"t":24209},{"dx":-94,"dy":82,"t":24269},{"dx":-88,"dy":79,"t":24309},{"dx":-56,"dy":59,"t":24369},{"dx":-34,"dy":43,"t":24414},{"dx":-46,"dy":43,"t":24493}],[{"dx":63,"dy":-7,"t":25534},{"dx":77,"dy":-8,"t":25581},{"dx":97,"dy":-7,"t":25648},{"dx":103,"dy":-4,"t":25690},{"dx":116,"dy":-3,"t":25755},{"dx":123,"dy":-5,"t":25795},{"dx":150,"dy":-14,"t":25857},{"dx":156,"dy":-17,"t":25896},{"dx":156,"dy":-28,"t":25964},{"dx":170,"dy":-18,"t":26004},{"dx":155,"dy":-12,"t":26080},{"dx":148,"dy":-10,"t":26127},{"dx":125,"dy":-10,"t":26192},{"dx":120,"dy":-10,"t":26232},{"dx":111,"dy":-8,"t":26291},{"dx":108,"dy":-7,"t":26340},{"dx":115,"dy":-7,"t":26403},{"dx":115,"dy":-5,"t":26443},{"dx":132,"dy":-21,"t":26510},{"dx":138,"dy":-32,"t":26551},{"dx":174,"dy":-48,"t":26614},{"dx":201,"dy":-43,"t":26658},{"dx":240,"dy":-40,"t":26719},{"dx":254,"dy":-43,"t":26761},{"dx":239,"dy":-23,"t":26821},{"dx":218,"dy":-7,"t":26862},{"dx":170,"dy":-3,"t":26925},{"dx":128,"dy":-4,"t":26965},{"dx":99,"dy":-11,"t":27028},{"dx":109,"dy":-20,"t":27069},{"dx":129,"dy":-31,"t":27129},{"dx":137,"dy":-34,"t":27173},{"dx":159,"dy":-62,"t":27237},{"dx":170,"dy":-54,"t":27277},{"dx":186,"dy":-44,"t":27336},{"dx":192,"dy":-42,"t":27375},{"dx":199,"dy":-45,"t":27443},{"dx":201,"dy":-48,"t":27462}],[{"dx":187,"dy":127,"t":28483},{"dx":197,"dy":103,"t":28544},{"dx":197,"dy":99,"t":28585},{"dx":185,"dy":101,"t":28650},{"dx":175,"dy":105,"t":28690},{"dx":143,"dy":102,"t":28752},{"dx":131,"dy":100,"t":28793},{"dx":100,"dy":96,"t":28855},{"dx":89,"dy":97,"t":28901},{"dx":77,"dy":102,"t":28965},{"dx":74,"dy":106,"t":29005},{"dx":43,"dy":112,"t":29068},{"dx":26,"dy":110,"t":29107},{"dx":0,"dy":102,"t":29169},{"dx":-8,"dy":97,"t":29210},{"dx":4,"dy":81,"t":29270},{"dx":12,"dy":74,"t":29309},{"dx":26,"dy":67,"t":29373},{"dx":31,"dy":66,"t":29414},{"dx":37,"dy":67,"t":29484},{"dx":42,"dy":65,"t":29524},{"dx":55,"dy":99,"t":29590},{"dx":62,"dy":113,"t":29633},{"dx":64,"dy":128,"t":29693},{"dx":63,"dy":127,"t":29733},{"dx":65,"dy":123,"t":29800},{"dx":59,"dy":122,"t":29842},{"dx":55,"dy":110,"t":29901},{"dx":48,"dy":108,"t":29939},{"dx":77,"dy":100,"t":30001},{"dx":100,"dy":95,"t":30041},{"dx":119,"dy":91,"t":30100},{"dx":109,"dy":96,"t":30139},{"dx":93,"dy":99,"t":30202},{"dx":87,"dy":97,"t":30243},{"dx":78,"dy":114,"t":30305},{"dx":73,"dy":116,"t":30343},{"dx":85,"dy":119,"t":30404},{"dx":80,"dy":122,"t":30501},{"dx":63,"dy":127,"t":30541}],[{"dx":76,"dy":-127,"t":31489},{"dx":85,"dy":-160,"t":31594},{"dx":93,"dy":-176,"t":31644},{"dx":81,"dy":-161,"t":31709},{"dx":76,"dy":-157,"t":31748},{"dx":71,"dy":-153,"t":31808},{"dx":69,"dy":-153,"t":31851},{"dx":45,"dy":-141,"t":31916},{"dx":36,"dy":-133,"t":31958},{"dx":22,"dy":-122,"t":32024},{"dx":26,"dy":-121,"t":32065},{"dx":52,"dy":-120,"t":32126},{"dx":70,"dy":-120,"t":32167},{"dx":88,"dy":-117,"t":32228},{"dx":89,"dy":-115,"t":32271},{"dx":85,"dy":-113,"t":32335},{"dx":81,"dy":-114,"t":32378},{"dx":76,"dy":-113,"t":32495},{"dx":76,"dy":-115,"t":32538},{"dx":68,"dy":-107,"t":32599},{"dx":67,"dy":-104,"t":32639},{"dx":60,"dy":-95,"t":32699},{"dx":54,"dy":-89,"t":32739},{"dx":43,"dy":-141,"t":32802},{"dx":38,"dy":-163,"t":32843},{"dx":3,"dy":-177,"t":32904},{"dx":-12,"dy":-187,"t":32945},{"dx":-18,"dy":-180,"t":33005},{"dx":-10,"dy":-167,"t":33043},{"dx":-44,"dy":-137,"t":33105},{"dx":-39,"dy":-119,"t":33144},{"dx":-25,"dy":-103,"t":33203},{"dx":-16,"dy":-103,"t":33243},{"dx":-11,"dy":-104,"t":33310},{"dx":-12,"dy":-104,"t":33352},{"dx":20,"dy":-114,"t":33417},{"dx":48,"dy":-119,"t":33543},{"dx":61,"dy":-125,"t":33674}],[{"dx":98,"dy":-58,"t":34489},{"dx":110,"dy":-60,"t":34552},{"dx":120,"dy":-62,"t":34592},{"dx":104,"dy":-36,"t":34662},{"dx":95,"dy":-24,"t":34702},{"dx":102,"dy":-44,"t":34762},{"dx":113,"dy":-49,"t":34806},{"dx":123,"dy":-58,"t":34865},{"dx":124,"dy":-63,"t":34905},{"dx":89,"dy":-35,"t":34974},{"dx":76,"dy":-20,"t":35014},{"dx":104,"dy":-37,"t":35075},{"dx":98,"dy":-32,"t":35112},{"dx":82,"dy":-38,"t":35171},{"dx":60,"dy":-39,"t":35210},{"dx":60,"dy":-38,"t":35300},{"dx":32,"dy":-32,"t":35357},{"dx":15,"dy":-10,"t":35463},{"dx":10,"dy":3,"t":35532},{"dx":58,"dy":-30,"t":35638},{"dx":70,"dy":-46,"t":35681},{"dx":83,"dy":-52,"t":35742},{"dx":90,"dy":-49,"t":35783},{"dx":89,"dy":-55,"t":35842},{"dx":83,"dy":-65,"t":35885},{"dx":84,"dy":-61,"t":35953},{"dx":88,"dy":-55,"t":35996},{"dx":120,"dy":-43,"t":36069},{"dx":123,"dy":-42,"t":36121},{"dx":110,"dy":-49,"t":36184},{"dx":110,"dy":-58,"t":36223},{"dx":109,"dy":-65,"t":36285},{"dx":107,"dy":-66,"t":36328},{"dx":100,"dy":-70,"t":36397},{"dx":99,"dy":-73,"t":36442},{"dx":112,"dy":-74,"t":36505},{"dx":124,"dy":-73,"t":36584}],[{"dx":-165,"dy":77,"t":37571},{"dx":-174,"dy":77,"t":37612},{"dx":-166,"dy":79,"t":37674},{"dx":-153,"dy":82,"t":37713},{"dx":-90,"dy":83,"t":37772},{"dx":-57,"dy":83,"t":37814},{"dx":-43,"dy":84,"t":37874},{"dx":-42,"dy":87,"t":37923},{"dx":25,"dy":89,"t":37983},{"dx":90,"dy":100,"t":38023},{"dx":159,"dy":145,"t":38083},{"dx":152,"dy":156,"t":38123},{"dx":142,"dy":216,"t":38182},{"dx":161,"dy":247,"t":38224},{"dx":134,"dy":295,"t":38284},{"dx":96,"dy":312,"t":38322},{"dx":59,"dy":296,"t":38381},{"dx":41,"dy":271,"t":38420},{"dx":-22,"dy":232,"t":38481},{"dx":-69,"dy":214,"t":38518},{"dx":-116,"dy":191,"t":38578},{"dx":-136,"dy":183,"t":38616},{"dx":-158,"dy":162,"t":38676},{"dx":-136,"dy":156,"t":38715},{"dx":-170,"dy":143,"t":38776},{"dx":-190,"dy":141,"t":38818},{"dx":-155,"dy":136,"t":38876},{"dx":-148,"dy":137,"t":38917},{"dx":-114,"dy":150,"t":38976},{"dx":-105,"dy":155,"t":39020},{"dx":-55,"dy":155,"t":39082},{"dx":-28,"dy":155,"t":39124},{"dx":7,"dy":161,"t":39185},{"dx":25,"dy":162,"t":39225},{"dx":13,"dy":171,"t":39285},{"dx":-1,"dy":177,"t":39327},{"dx":-2,"dy":177,"t":39386},{"dx":-5,"dy":181,"t":39425},{"dx":-46,"dy":171,"t":39500}]],"percent_in_roi":[100,55.26315789473685,87.09677419354838,100,70.73170731707317,100,100,87.5,52.63157894736842,82.5,71.05263157894737,100,15.384615384615385],"average_offset":[{"x":-8.131578947368421,"y":25.657894736842106,"r":59.1659295753667},{"x":355.36842105263156,"y":48.421052631578945,"r":431.9521353596241},{"x":37.225806451612904,"y":-0.12903225806451613,"r":63.303186683837836},{"x":-43.875,"y":-36.5,"r":50.78642203594653},{"x":97.04878048780488,"y":-52.68292682926829,"r":55.77223269084565},{"x":10.125,"y":34.675,"r":37.03869815041411},{"x":-33.30555555555556,"y":-2.7222222222222223,"r":70.59989162556269},{"x":-52.1,"y":100.45,"r":44.341997270156796},{"x":149.55263157894737,"y":-21.973684210526315,"r":57.76953419568535},{"x":80.075,"y":102.125,"r":45.40243037921716},{"x":41.36842105263158,"y":-130.76315789473685,"r":61.84090784600939},{"x":91.1891891891892,"y":-47.513513513513516,"r":23.82031899001303},{"x":-36.97435897435897,"y":161.25641025641025,"r":99.16505145121852}],"samples_per_sec":"17.92","clicks":15,"pattern":"cond","trial_type":"webgazer-validate","trial_index":31,"time_elapsed":303751,"internal_node_id":"0.0-10.0-3.3","validation_points":[[25,25],[15,15],[75,25],[62.5,62.5],[15,85],[37.5,62.5],[37.5,37.5],[50,50],[25,75],[85,15],[85,85],[75,75],[62.5,37.5]],"user_agent":"Mozilla/5.0 (Macintosh; Intel Mac OS X 10_13_5) AppleWebKit/537.36 (KHTML, like Gecko) Chrome/88.0.4324.150 Safari/537.36","screen_width_px":1280,"screen_height_px":800},{"rt":1479.0349999675527,"stimulus":"\n      <p>Round complete.</p>\n      <p>You can move a little bit, but please try to return you head to the same general location before continuing.</p>\n    ","response":0,"trial_type":"html-button-response","trial_index":32,"time_elapsed":305232,"internal_node_id":"0.0-10.0-4.3","user_agent":"Mozilla/5.0 (Macintosh; Intel Mac OS X 10_13_5) AppleWebKit/537.36 (KHTML, like Gecko) Chrome/88.0.4324.150 Safari/537.36","screen_width_px":1280,"screen_height_px":800},{"trial_type":"webgazer-init-camera","trial_index":33,"time_elapsed":308808,"internal_node_id":"0.0-10.0-5.3","user_agent":"Mozilla/5.0 (Macintosh; Intel Mac OS X 10_13_5) AppleWebKit/537.36 (KHTML, like Gecko) Chrome/88.0.4324.150 Safari/537.36","screen_width_px":1280,"screen_height_px":800},{"rt":940.1850000722334,"stimulus":"\n      <p>Calibration phase next.</p>\n      <p>Click on the dots.</p>\n    ","response":0,"trial_type":"html-button-response","trial_index":34,"time_elapsed":309754,"internal_node_id":"0.0-10.0-0.4","user_agent":"Mozilla/5.0 (Macintosh; Intel Mac OS X 10_13_5) AppleWebKit/537.36 (KHTML, like Gecko) Chrome/88.0.4324.150 Safari/537.36","screen_width_px":1280,"screen_height_px":800},{"trial_type":"webgazer-calibrate","trial_index":35,"time_elapsed":316259,"internal_node_id":"0.0-10.0-1.4","user_agent":"Mozilla/5.0 (Macintosh; Intel Mac OS X 10_13_5) AppleWebKit/537.36 (KHTML, like Gecko) Chrome/88.0.4324.150 Safari/537.36","screen_width_px":1280,"screen_height_px":800},{"rt":882.344999932684,"stimulus":"\n      <p>Validation phase next.</p>\n      <p>Look at the dots.</p>\n    ","response":0,"trial_type":"html-button-response","trial_index":36,"time_elapsed":317142,"internal_node_id":"0.0-10.0-2.4","user_agent":"Mozilla/5.0 (Macintosh; Intel Mac OS X 10_13_5) AppleWebKit/537.36 (KHTML, like Gecko) Chrome/88.0.4324.150 Safari/537.36","screen_width_px":1280,"screen_height_px":800},{"raw_gaze":[[{"dx":-38,"dy":3,"t":1109},{"dx":-8,"dy":-7,"t":1176},{"dx":9,"dy":-12,"t":1219},{"dx":54,"dy":-11,"t":1279},{"dx":79,"dy":-7,"t":1318},{"dx":97,"dy":-9,"t":1377},{"dx":114,"dy":-9,"t":1418},{"dx":127,"dy":-13,"t":1479},{"dx":125,"dy":-16,"t":1517},{"dx":47,"dy":-15,"t":1579},{"dx":32,"dy":-17,"t":1618},{"dx":22,"dy":-18,"t":1679},{"dx":24,"dy":-19,"t":1717},{"dx":-3,"dy":-1,"t":1785},{"dx":-17,"dy":7,"t":1825},{"dx":-26,"dy":12,"t":1887},{"dx":-24,"dy":10,"t":1927},{"dx":2,"dy":1,"t":1995},{"dx":23,"dy":-5,"t":2035},{"dx":86,"dy":-18,"t":2097},{"dx":124,"dy":-24,"t":2146},{"dx":158,"dy":-32,"t":2211},{"dx":175,"dy":-35,"t":2250},{"dx":134,"dy":-28,"t":2313},{"dx":111,"dy":-24,"t":2354},{"dx":60,"dy":-6,"t":2418},{"dx":58,"dy":2,"t":2463},{"dx":73,"dy":-10,"t":2528},{"dx":86,"dy":-15,"t":2569},{"dx":138,"dy":-19,"t":2631},{"dx":160,"dy":-21,"t":2673},{"dx":183,"dy":-21,"t":2736},{"dx":193,"dy":-18,"t":2776},{"dx":199,"dy":-13,"t":2839},{"dx":211,"dy":-7,"t":2877},{"dx":190,"dy":3,"t":2944},{"dx":175,"dy":9,"t":2985},{"dx":157,"dy":17,"t":3046},{"dx":152,"dy":19,"t":3087},{"dx":145,"dy":18,"t":3172}],[{"dx":2,"dy":-11,"t":4142},{"dx":-24,"dy":-18,"t":4187},{"dx":-42,"dy":-30,"t":4246},{"dx":-41,"dy":-33,"t":4287},{"dx":-38,"dy":-54,"t":4349},{"dx":-38,"dy":-64,"t":4388},{"dx":-21,"dy":-76,"t":4450},{"dx":-9,"dy":-84,"t":4488},{"dx":-14,"dy":-75,"t":4548},{"dx":-16,"dy":-59,"t":4586},{"dx":-41,"dy":-54,"t":4647},{"dx":-43,"dy":-40,"t":4686},{"dx":-48,"dy":-17,"t":4752},{"dx":-51,"dy":-7,"t":4790},{"dx":-53,"dy":4,"t":4850},{"dx":-55,"dy":5,"t":4890},{"dx":-59,"dy":3,"t":4949},{"dx":-57,"dy":0,"t":4987},{"dx":-43,"dy":1,"t":5048},{"dx":-45,"dy":4,"t":5088},{"dx":-51,"dy":-7,"t":5149},{"dx":-52,"dy":-16,"t":5190},{"dx":-58,"dy":-34,"t":5250},{"dx":-62,"dy":-32,"t":5289},{"dx":-83,"dy":-50,"t":5349},{"dx":-88,"dy":-67,"t":5387},{"dx":-100,"dy":-91,"t":5447},{"dx":-95,"dy":-98,"t":5488},{"dx":-85,"dy":-65,"t":5547},{"dx":-88,"dy":-55,"t":5586},{"dx":-46,"dy":-69,"t":5648},{"dx":-31,"dy":-73,"t":5688},{"dx":-45,"dy":-74,"t":5752},{"dx":-49,"dy":-73,"t":5790},{"dx":-58,"dy":-70,"t":5851},{"dx":-63,"dy":-69,"t":5890},{"dx":-81,"dy":-70,"t":5950},{"dx":-94,"dy":-72,"t":5991},{"dx":-97,"dy":-75,"t":6051},{"dx":-90,"dy":-77,"t":6148},{"dx":-93,"dy":-71,"t":6186}],[{"dx":203,"dy":112,"t":7185},{"dx":202,"dy":109,"t":7224},{"dx":207,"dy":94,"t":7286},{"dx":221,"dy":86,"t":7324},{"dx":219,"dy":70,"t":7388},{"dx":206,"dy":64,"t":7428},{"dx":207,"dy":35,"t":7494},{"dx":202,"dy":27,"t":7543},{"dx":193,"dy":3,"t":7604},{"dx":198,"dy":-5,"t":7643},{"dx":201,"dy":-18,"t":7709},{"dx":191,"dy":-18,"t":7748},{"dx":214,"dy":-21,"t":7808},{"dx":223,"dy":-30,"t":7846},{"dx":259,"dy":-35,"t":7910},{"dx":283,"dy":-35,"t":7954},{"dx":322,"dy":-55,"t":8014},{"dx":325,"dy":-48,"t":8056},{"dx":305,"dy":-40,"t":8114},{"dx":288,"dy":-40,"t":8158},{"dx":273,"dy":-24,"t":8221},{"dx":265,"dy":-21,"t":8260},{"dx":277,"dy":-4,"t":8320},{"dx":292,"dy":1,"t":8359},{"dx":300,"dy":6,"t":8419},{"dx":315,"dy":7,"t":8459},{"dx":319,"dy":9,"t":8520},{"dx":314,"dy":6,"t":8558},{"dx":306,"dy":12,"t":8620},{"dx":289,"dy":15,"t":8658},{"dx":287,"dy":12,"t":8718},{"dx":304,"dy":8,"t":8805},{"dx":296,"dy":7,"t":8867},{"dx":296,"dy":6,"t":8907},{"dx":287,"dy":-7,"t":8969},{"dx":295,"dy":-13,"t":9012},{"dx":299,"dy":-21,"t":9071},{"dx":292,"dy":-32,"t":9168},{"dx":282,"dy":-28,"t":9207}],[{"dx":172,"dy":78,"t":10182},{"dx":149,"dy":79,"t":10222},{"dx":164,"dy":67,"t":10289},{"dx":185,"dy":55,"t":10327},{"dx":180,"dy":61,"t":10386},{"dx":180,"dy":63,"t":10427},{"dx":188,"dy":66,"t":10487},{"dx":187,"dy":67,"t":10525},{"dx":184,"dy":63,"t":10586},{"dx":182,"dy":54,"t":10631},{"dx":168,"dy":45,"t":10696},{"dx":158,"dy":44,"t":10735},{"dx":179,"dy":44,"t":10801},{"dx":205,"dy":41,"t":10842},{"dx":232,"dy":47,"t":10904},{"dx":234,"dy":54,"t":10948},{"dx":247,"dy":61,"t":11010},{"dx":257,"dy":62,"t":11049},{"dx":237,"dy":54,"t":11110},{"dx":221,"dy":50,"t":11153},{"dx":196,"dy":64,"t":11220},{"dx":157,"dy":73,"t":11261},{"dx":150,"dy":70,"t":11319},{"dx":173,"dy":65,"t":11364},{"dx":177,"dy":55,"t":11435},{"dx":174,"dy":48,"t":11477},{"dx":178,"dy":33,"t":11537},{"dx":184,"dy":26,"t":11578},{"dx":204,"dy":18,"t":11641},{"dx":214,"dy":18,"t":11684},{"dx":213,"dy":20,"t":11745},{"dx":245,"dy":16,"t":11785},{"dx":242,"dy":28,"t":11847},{"dx":206,"dy":44,"t":11898},{"dx":207,"dy":50,"t":11968},{"dx":236,"dy":45,"t":12014},{"dx":222,"dy":35,"t":12084},{"dx":208,"dy":35,"t":12193},{"dx":210,"dy":42,"t":12233}],[{"dx":-44,"dy":46,"t":13209},{"dx":-41,"dy":38,"t":13248},{"dx":-20,"dy":34,"t":13315},{"dx":-15,"dy":37,"t":13355},{"dx":-28,"dy":50,"t":13436},{"dx":-43,"dy":59,"t":13480},{"dx":-55,"dy":51,"t":13541},{"dx":-60,"dy":50,"t":13582},{"dx":-53,"dy":54,"t":13646},{"dx":-43,"dy":59,"t":13691},{"dx":-36,"dy":79,"t":13755},{"dx":-41,"dy":90,"t":13796},{"dx":-56,"dy":103,"t":13857},{"dx":-66,"dy":107,"t":13910},{"dx":-61,"dy":106,"t":13974},{"dx":-65,"dy":109,"t":14015},{"dx":-67,"dy":98,"t":14075},{"dx":-64,"dy":94,"t":14114},{"dx":-63,"dy":81,"t":14174},{"dx":-61,"dy":74,"t":14216},{"dx":-64,"dy":79,"t":14277},{"dx":-52,"dy":69,"t":14325},{"dx":-56,"dy":76,"t":14385},{"dx":-62,"dy":81,"t":14425},{"dx":-51,"dy":87,"t":14486},{"dx":-38,"dy":87,"t":14526},{"dx":-22,"dy":88,"t":14591},{"dx":-18,"dy":84,"t":14630},{"dx":-45,"dy":87,"t":14694},{"dx":-40,"dy":83,"t":14743},{"dx":-46,"dy":79,"t":14809},{"dx":-44,"dy":78,"t":14848},{"dx":-59,"dy":82,"t":14911},{"dx":-64,"dy":84,"t":14951},{"dx":-61,"dy":92,"t":15010},{"dx":-56,"dy":97,"t":15051},{"dx":-56,"dy":100,"t":15110},{"dx":-61,"dy":99,"t":15157},{"dx":-69,"dy":95,"t":15256}],[{"dx":-15,"dy":-4,"t":16211},{"dx":-30,"dy":-2,"t":16252},{"dx":-19,"dy":4,"t":16312},{"dx":-13,"dy":10,"t":16351},{"dx":-8,"dy":23,"t":16416},{"dx":4,"dy":29,"t":16456},{"dx":12,"dy":25,"t":16519},{"dx":9,"dy":17,"t":16560},{"dx":0,"dy":22,"t":16622},{"dx":-9,"dy":25,"t":16661},{"dx":-2,"dy":33,"t":16724},{"dx":4,"dy":34,"t":16769},{"dx":0,"dy":42,"t":16844},{"dx":-9,"dy":49,"t":16883},{"dx":-5,"dy":52,"t":16958},{"dx":-2,"dy":55,"t":16998},{"dx":9,"dy":68,"t":17063},{"dx":10,"dy":70,"t":17101},{"dx":17,"dy":51,"t":17161},{"dx":13,"dy":58,"t":17201},{"dx":29,"dy":62,"t":17260},{"dx":31,"dy":76,"t":17300},{"dx":21,"dy":80,"t":17360},{"dx":17,"dy":79,"t":17402},{"dx":12,"dy":67,"t":17461},{"dx":9,"dy":59,"t":17501},{"dx":10,"dy":42,"t":17569},{"dx":21,"dy":29,"t":17610},{"dx":26,"dy":-5,"t":17674},{"dx":27,"dy":-8,"t":17715},{"dx":29,"dy":-5,"t":17778},{"dx":30,"dy":0,"t":17817},{"dx":2,"dy":24,"t":17879},{"dx":-12,"dy":35,"t":17917},{"dx":16,"dy":26,"t":17979},{"dx":32,"dy":18,"t":18022},{"dx":39,"dy":4,"t":18081},{"dx":32,"dy":-2,"t":18125},{"dx":39,"dy":-13,"t":18193},{"dx":50,"dy":-17,"t":18267}],[{"dx":9,"dy":-11,"t":19237},{"dx":20,"dy":-8,"t":19306},{"dx":28,"dy":-7,"t":19348},{"dx":19,"dy":5,"t":19412},{"dx":17,"dy":6,"t":19455},{"dx":2,"dy":5,"t":19517},{"dx":-8,"dy":4,"t":19556},{"dx":-48,"dy":-20,"t":19619},{"dx":-68,"dy":-31,"t":19659},{"dx":-81,"dy":-33,"t":19720},{"dx":-80,"dy":-35,"t":19761},{"dx":-78,"dy":-45,"t":19830},{"dx":-76,"dy":-53,"t":19870},{"dx":-69,"dy":-56,"t":19931},{"dx":-70,"dy":-55,"t":19970},{"dx":-60,"dy":-45,"t":20031},{"dx":-59,"dy":-44,"t":20071},{"dx":-9,"dy":-32,"t":20133},{"dx":-24,"dy":-32,"t":20173},{"dx":-41,"dy":-40,"t":20236},{"dx":-37,"dy":-45,"t":20274},{"dx":-17,"dy":-27,"t":20343},{"dx":-5,"dy":-20,"t":20383},{"dx":-7,"dy":-10,"t":20448},{"dx":-12,"dy":-9,"t":20491},{"dx":-30,"dy":-3,"t":20552},{"dx":-42,"dy":-4,"t":20592},{"dx":-55,"dy":-9,"t":20652},{"dx":-58,"dy":-12,"t":20690},{"dx":-66,"dy":-21,"t":20750},{"dx":-71,"dy":-27,"t":20792},{"dx":-70,"dy":-35,"t":20852},{"dx":-54,"dy":-37,"t":20891},{"dx":-46,"dy":-34,"t":20951},{"dx":-41,"dy":-29,"t":20993},{"dx":-50,"dy":-33,"t":21055},{"dx":-61,"dy":-39,"t":21094},{"dx":-74,"dy":-30,"t":21160},{"dx":-65,"dy":-17,"t":21257},{"dx":-49,"dy":4,"t":21298}],[{"dx":-59,"dy":-92,"t":22267},{"dx":-48,"dy":-91,"t":22306},{"dx":-45,"dy":-66,"t":22366},{"dx":-46,"dy":-57,"t":22411},{"dx":-60,"dy":-38,"t":22483},{"dx":-70,"dy":-29,"t":22522},{"dx":-80,"dy":-14,"t":22583},{"dx":-80,"dy":-8,"t":22624},{"dx":-74,"dy":45,"t":22688},{"dx":-76,"dy":92,"t":22727},{"dx":-119,"dy":197,"t":22790},{"dx":-147,"dy":267,"t":22830},{"dx":-141,"dy":346,"t":22898},{"dx":-120,"dy":381,"t":22937},{"dx":-95,"dy":388,"t":22998},{"dx":-85,"dy":375,"t":23038},{"dx":-81,"dy":322,"t":23098},{"dx":-75,"dy":287,"t":23136},{"dx":-42,"dy":221,"t":23196},{"dx":-28,"dy":190,"t":23235},{"dx":-12,"dy":134,"t":23295},{"dx":-12,"dy":113,"t":23333},{"dx":-21,"dy":78,"t":23396},{"dx":-27,"dy":65,"t":23435},{"dx":-41,"dy":44,"t":23500},{"dx":-55,"dy":38,"t":23541},{"dx":-65,"dy":30,"t":23602},{"dx":-67,"dy":29,"t":23641},{"dx":-73,"dy":42,"t":23702},{"dx":-86,"dy":41,"t":23740},{"dx":-81,"dy":59,"t":23800},{"dx":-71,"dy":67,"t":23841},{"dx":-78,"dy":63,"t":23901},{"dx":-86,"dy":61,"t":23938},{"dx":-82,"dy":69,"t":24002},{"dx":-84,"dy":72,"t":24044},{"dx":-89,"dy":67,"t":24111},{"dx":-92,"dy":62,"t":24150},{"dx":-83,"dy":50,"t":24216},{"dx":-84,"dy":42,"t":24328},{"dx":-87,"dy":26,"t":24365}],[{"dx":-109,"dy":39,"t":25280},{"dx":-115,"dy":37,"t":25345},{"dx":-116,"dy":33,"t":25384},{"dx":-125,"dy":19,"t":25450},{"dx":-133,"dy":9,"t":25491},{"dx":-62,"dy":-10,"t":25553},{"dx":-31,"dy":-22,"t":25592},{"dx":36,"dy":-28,"t":25652},{"dx":68,"dy":-30,"t":25693},{"dx":74,"dy":-43,"t":25753},{"dx":79,"dy":-51,"t":25791},{"dx":98,"dy":-30,"t":25852},{"dx":97,"dy":-18,"t":25908},{"dx":125,"dy":-8,"t":25967},{"dx":150,"dy":-9,"t":26006},{"dx":97,"dy":-27,"t":26068},{"dx":109,"dy":-27,"t":26108},{"dx":64,"dy":-38,"t":26166},{"dx":45,"dy":-41,"t":26209},{"dx":70,"dy":-12,"t":26271},{"dx":75,"dy":-9,"t":26309},{"dx":39,"dy":-26,"t":26378},{"dx":39,"dy":-38,"t":26419},{"dx":20,"dy":-28,"t":26485},{"dx":28,"dy":-29,"t":26525},{"dx":28,"dy":-18,"t":26587},{"dx":40,"dy":-16,"t":26626},{"dx":40,"dy":-14,"t":26686},{"dx":36,"dy":-8,"t":26728},{"dx":19,"dy":10,"t":26789},{"dx":15,"dy":20,"t":26829},{"dx":22,"dy":30,"t":26887},{"dx":26,"dy":35,"t":26926},{"dx":26,"dy":31,"t":26988},{"dx":23,"dy":24,"t":27035},{"dx":19,"dy":27,"t":27102},{"dx":23,"dy":27,"t":27153},{"dx":24,"dy":33,"t":27229},{"dx":22,"dy":37,"t":27271},{"dx":18,"dy":38,"t":27366}],[{"dx":-52,"dy":-44,"t":28337},{"dx":-53,"dy":-39,"t":28376},{"dx":-64,"dy":-31,"t":28438},{"dx":-63,"dy":-33,"t":28478},{"dx":-78,"dy":-28,"t":28540},{"dx":-87,"dy":-26,"t":28579},{"dx":-83,"dy":-32,"t":28639},{"dx":-79,"dy":-43,"t":28680},{"dx":-88,"dy":-48,"t":28746},{"dx":-93,"dy":-46,"t":28785},{"dx":-110,"dy":-60,"t":28846},{"dx":-107,"dy":-65,"t":28886},{"dx":-94,"dy":-66,"t":28953},{"dx":-80,"dy":-63,"t":29003},{"dx":-52,"dy":-57,"t":29062},{"dx":-32,"dy":-53,"t":29102},{"dx":-6,"dy":-45,"t":29164},{"dx":1,"dy":-41,"t":29205},{"dx":-12,"dy":-43,"t":29265},{"dx":-15,"dy":-47,"t":29305},{"dx":-49,"dy":-44,"t":29373},{"dx":-72,"dy":-39,"t":29410},{"dx":-109,"dy":-29,"t":29470},{"dx":-126,"dy":-29,"t":29510},{"dx":-147,"dy":-26,"t":29567},{"dx":-153,"dy":-24,"t":29606},{"dx":-176,"dy":-34,"t":29670},{"dx":-193,"dy":-46,"t":29712},{"dx":-156,"dy":-52,"t":29775},{"dx":-131,"dy":-53,"t":29813},{"dx":-136,"dy":-60,"t":29873},{"dx":-142,"dy":-63,"t":29917},{"dx":-135,"dy":-63,"t":29981},{"dx":-114,"dy":-61,"t":30022},{"dx":-85,"dy":-43,"t":30086},{"dx":-79,"dy":-30,"t":30124},{"dx":-85,"dy":-16,"t":30199},{"dx":-113,"dy":-24,"t":30240},{"dx":-131,"dy":-29,"t":30300},{"dx":-136,"dy":-34,"t":30374}],[{"dx":218,"dy":120,"t":31334},{"dx":160,"dy":67,"t":31408},{"dx":120,"dy":49,"t":31453},{"dx":70,"dy":35,"t":31522},{"dx":55,"dy":33,"t":31566},{"dx":45,"dy":26,"t":31628},{"dx":61,"dy":21,"t":31672},{"dx":145,"dy":34,"t":31733},{"dx":161,"dy":43,"t":31772},{"dx":204,"dy":57,"t":31834},{"dx":205,"dy":67,"t":31875},{"dx":185,"dy":89,"t":31935},{"dx":167,"dy":100,"t":31974},{"dx":170,"dy":101,"t":32048},{"dx":176,"dy":101,"t":32095},{"dx":203,"dy":96,"t":32157},{"dx":207,"dy":98,"t":32198},{"dx":175,"dy":102,"t":32260},{"dx":162,"dy":97,"t":32301},{"dx":135,"dy":95,"t":32360},{"dx":119,"dy":92,"t":32399},{"dx":115,"dy":96,"t":32457},{"dx":123,"dy":97,"t":32497},{"dx":152,"dy":106,"t":32559},{"dx":161,"dy":108,"t":32611},{"dx":96,"dy":109,"t":32677},{"dx":90,"dy":104,"t":32717},{"dx":50,"dy":96,"t":32777},{"dx":36,"dy":95,"t":32817},{"dx":45,"dy":85,"t":32876},{"dx":58,"dy":78,"t":32916},{"dx":46,"dy":77,"t":32986},{"dx":39,"dy":82,"t":33024},{"dx":41,"dy":86,"t":33092},{"dx":48,"dy":85,"t":33132},{"dx":94,"dy":81,"t":33195},{"dx":128,"dy":77,"t":33237},{"dx":139,"dy":97,"t":33297},{"dx":144,"dy":95,"t":33339},{"dx":117,"dy":108,"t":33433}],[{"dx":64,"dy":-15,"t":34393},{"dx":52,"dy":-11,"t":34456},{"dx":50,"dy":-8,"t":34495},{"dx":46,"dy":-13,"t":34563},{"dx":45,"dy":-19,"t":34604},{"dx":17,"dy":-39,"t":34664},{"dx":-12,"dy":-51,"t":34702},{"dx":-22,"dy":-90,"t":34764},{"dx":-21,"dy":-107,"t":34802},{"dx":-26,"dy":-116,"t":34863},{"dx":-29,"dy":-113,"t":34900},{"dx":-39,"dy":-99,"t":34959},{"dx":-52,"dy":-96,"t":34999},{"dx":-84,"dy":-94,"t":35066},{"dx":-102,"dy":-95,"t":35105},{"dx":-79,"dy":-70,"t":35166},{"dx":-57,"dy":-61,"t":35208},{"dx":-26,"dy":-46,"t":35272},{"dx":1,"dy":-42,"t":35310},{"dx":-9,"dy":-26,"t":35369},{"dx":-22,"dy":-18,"t":35408},{"dx":-25,"dy":-32,"t":35467},{"dx":-36,"dy":-29,"t":35507},{"dx":-62,"dy":-30,"t":35567},{"dx":-59,"dy":-29,"t":35605},{"dx":-67,"dy":-29,"t":35664},{"dx":-63,"dy":-27,"t":35704},{"dx":-40,"dy":-32,"t":35763},{"dx":-34,"dy":-38,"t":35807},{"dx":-39,"dy":-28,"t":35866},{"dx":-40,"dy":-26,"t":35904},{"dx":-52,"dy":-27,"t":35963},{"dx":-64,"dy":-14,"t":36007},{"dx":-78,"dy":0,"t":36065},{"dx":-81,"dy":3,"t":36102},{"dx":-85,"dy":-8,"t":36164},{"dx":-79,"dy":-13,"t":36208},{"dx":-84,"dy":-4,"t":36268},{"dx":-84,"dy":5,"t":36321},{"dx":-92,"dy":8,"t":36459},{"dx":-103,"dy":11,"t":36480}],[{"dx":137,"dy":-15,"t":37414},{"dx":124,"dy":-17,"t":37453},{"dx":118,"dy":0,"t":37514},{"dx":131,"dy":3,"t":37552},{"dx":127,"dy":28,"t":37618},{"dx":129,"dy":41,"t":37658},{"dx":156,"dy":23,"t":37721},{"dx":176,"dy":24,"t":37760},{"dx":178,"dy":49,"t":37823},{"dx":171,"dy":55,"t":37862},{"dx":150,"dy":62,"t":37929},{"dx":153,"dy":56,"t":37976},{"dx":137,"dy":56,"t":38057},{"dx":134,"dy":54,"t":38098},{"dx":172,"dy":38,"t":38165},{"dx":190,"dy":32,"t":38207},{"dx":143,"dy":32,"t":38268},{"dx":141,"dy":19,"t":38308},{"dx":116,"dy":18,"t":38370},{"dx":106,"dy":32,"t":38411},{"dx":122,"dy":18,"t":38469},{"dx":130,"dy":10,"t":38509},{"dx":144,"dy":0,"t":38567},{"dx":162,"dy":-2,"t":38607},{"dx":162,"dy":-24,"t":38669},{"dx":153,"dy":-29,"t":38709},{"dx":138,"dy":-43,"t":38772},{"dx":133,"dy":-51,"t":38812},{"dx":121,"dy":-51,"t":38873},{"dx":103,"dy":-37,"t":38912},{"dx":86,"dy":-12,"t":38972},{"dx":85,"dy":-1,"t":39012},{"dx":78,"dy":20,"t":39072},{"dx":79,"dy":25,"t":39116},{"dx":75,"dy":14,"t":39176},{"dx":91,"dy":6,"t":39224},{"dx":102,"dy":-28,"t":39289},{"dx":108,"dy":-38,"t":39329}]],"percent_in_roi":[72.5,100,0,0,100,100,100,75.60975609756098,97.5,87.5,47.5,100,71.05263157894737],"average_offset":[{"x":90.175,"y":-8.725,"r":101.15668270030466},{"x":-54.75609756097561,"y":-46.65853658536585,"r":38.9734805120645},{"x":263,"y":4.9743589743589745,"r":51.45573792255344},{"x":197.56410256410257,"y":49.743589743589745,"r":28.539210255803916},{"x":-49.8974358974359,"y":78.1025641025641,"r":20.309667088650368},{"x":10.65,"y":30.3,"r":42.173200984275574},{"x":-39.65,"y":-24.1,"r":45.356657040238225},{"x":-71.8780487804878,"y":96.78048780487805,"r":67.95579362329632},{"x":25.075,"y":-3.275,"r":63.20876868788595},{"x":-92.875,"y":-42.725,"r":55.598504608266744},{"x":121.625,"y":82.125,"r":83.98581404183737},{"x":-38.34146341463415,"y":-38.24390243902439,"r":54.274644736497834},{"x":130.55263157894737,"y":9.657894736842104,"r":69.45431494127}],"samples_per_sec":"18.94","clicks":5,"pattern":"spread","trial_type":"webgazer-validate","trial_index":37,"time_elapsed":357492,"internal_node_id":"0.0-10.0-3.4","validation_points":[[25,25],[75,25],[15,85],[25,75],[62.5,37.5],[50,50],[75,75],[85,15],[37.5,37.5],[85,85],[15,15],[62.5,62.5],[37.5,62.5]],"user_agent":"Mozilla/5.0 (Macintosh; Intel Mac OS X 10_13_5) AppleWebKit/537.36 (KHTML, like Gecko) Chrome/88.0.4324.150 Safari/537.36","screen_width_px":1280,"screen_height_px":800},{"rt":1506.2899999320507,"stimulus":"\n      <p>Round complete.</p>\n      <p>You can move a little bit, but please try to return you head to the same general location before continuing.</p>\n    ","response":0,"trial_type":"html-button-response","trial_index":38,"time_elapsed":359000,"internal_node_id":"0.0-10.0-4.4","user_agent":"Mozilla/5.0 (Macintosh; Intel Mac OS X 10_13_5) AppleWebKit/537.36 (KHTML, like Gecko) Chrome/88.0.4324.150 Safari/537.36","screen_width_px":1280,"screen_height_px":800},{"trial_type":"webgazer-init-camera","trial_index":39,"time_elapsed":360908,"internal_node_id":"0.0-10.0-5.4","user_agent":"Mozilla/5.0 (Macintosh; Intel Mac OS X 10_13_5) AppleWebKit/537.36 (KHTML, like Gecko) Chrome/88.0.4324.150 Safari/537.36","screen_width_px":1280,"screen_height_px":800},{"rt":874.1500000469387,"stimulus":"\n      <p>Calibration phase next.</p>\n      <p>Click on the dots.</p>\n    ","response":0,"trial_type":"html-button-response","trial_index":40,"time_elapsed":361783,"internal_node_id":"0.0-10.0-0.5","user_agent":"Mozilla/5.0 (Macintosh; Intel Mac OS X 10_13_5) AppleWebKit/537.36 (KHTML, like Gecko) Chrome/88.0.4324.150 Safari/537.36","screen_width_px":1280,"screen_height_px":800},{"trial_type":"webgazer-calibrate","trial_index":41,"time_elapsed":397808,"internal_node_id":"0.0-10.0-1.5","user_agent":"Mozilla/5.0 (Macintosh; Intel Mac OS X 10_13_5) AppleWebKit/537.36 (KHTML, like Gecko) Chrome/88.0.4324.150 Safari/537.36","screen_width_px":1280,"screen_height_px":800},{"rt":3691.869999980554,"stimulus":"\n      <p>Validation phase next.</p>\n      <p>Look at the dots.</p>\n    ","response":0,"trial_type":"html-button-response","trial_index":42,"time_elapsed":401501,"internal_node_id":"0.0-10.0-2.5","user_agent":"Mozilla/5.0 (Macintosh; Intel Mac OS X 10_13_5) AppleWebKit/537.36 (KHTML, like Gecko) Chrome/88.0.4324.150 Safari/537.36","screen_width_px":1280,"screen_height_px":800},{"raw_gaze":[[{"dx":39,"dy":71,"t":1121},{"dx":44,"dy":89,"t":1185},{"dx":61,"dy":89,"t":1237},{"dx":48,"dy":101,"t":1297},{"dx":38,"dy":114,"t":1338},{"dx":72,"dy":104,"t":1404},{"dx":47,"dy":86,"t":1446},{"dx":-2,"dy":70,"t":1505},{"dx":-30,"dy":64,"t":1545},{"dx":-22,"dy":74,"t":1607},{"dx":-32,"dy":78,"t":1648},{"dx":2,"dy":87,"t":1733},{"dx":24,"dy":91,"t":1802},{"dx":88,"dy":104,"t":1890},{"dx":89,"dy":105,"t":1955},{"dx":95,"dy":90,"t":2036},{"dx":77,"dy":92,"t":2090},{"dx":97,"dy":89,"t":2171},{"dx":127,"dy":105,"t":2223},{"dx":133,"dy":108,"t":2290},{"dx":99,"dy":97,"t":2333},{"dx":75,"dy":97,"t":2409},{"dx":56,"dy":98,"t":2450},{"dx":31,"dy":87,"t":2511},{"dx":24,"dy":78,"t":2554},{"dx":38,"dy":77,"t":2623},{"dx":32,"dy":82,"t":2665},{"dx":23,"dy":89,"t":2733},{"dx":20,"dy":90,"t":2781},{"dx":13,"dy":90,"t":2844},{"dx":16,"dy":87,"t":2886},{"dx":24,"dy":89,"t":2956},{"dx":27,"dy":94,"t":2999},{"dx":30,"dy":92,"t":3067},{"dx":30,"dy":86,"t":3149}],[{"dx":-93,"dy":160,"t":4115},{"dx":-99,"dy":156,"t":4157},{"dx":-146,"dy":124,"t":4218},{"dx":-145,"dy":112,"t":4258},{"dx":-184,"dy":112,"t":4321},{"dx":-216,"dy":115,"t":4362},{"dx":-222,"dy":130,"t":4424},{"dx":-204,"dy":141,"t":4465},{"dx":-228,"dy":127,"t":4526},{"dx":-234,"dy":137,"t":4567},{"dx":-229,"dy":121,"t":4629},{"dx":-216,"dy":111,"t":4667},{"dx":-211,"dy":108,"t":4728},{"dx":-209,"dy":115,"t":4767},{"dx":-190,"dy":119,"t":4829},{"dx":-175,"dy":128,"t":4869},{"dx":-175,"dy":132,"t":4940},{"dx":-185,"dy":129,"t":4982},{"dx":-205,"dy":131,"t":5043},{"dx":-213,"dy":135,"t":5085},{"dx":-233,"dy":137,"t":5146},{"dx":-243,"dy":136,"t":5185},{"dx":-239,"dy":143,"t":5255},{"dx":-222,"dy":158,"t":5297},{"dx":-201,"dy":166,"t":5359},{"dx":-196,"dy":161,"t":5402},{"dx":-202,"dy":141,"t":5464},{"dx":-208,"dy":132,"t":5508},{"dx":-185,"dy":129,"t":5568},{"dx":-195,"dy":129,"t":5612},{"dx":-191,"dy":122,"t":5673},{"dx":-203,"dy":119,"t":5712},{"dx":-216,"dy":113,"t":5773},{"dx":-217,"dy":111,"t":5811},{"dx":-218,"dy":120,"t":5869},{"dx":-210,"dy":127,"t":5913},{"dx":-211,"dy":126,"t":5974},{"dx":-218,"dy":120,"t":6014},{"dx":-165,"dy":135,"t":6137},{"dx":-149,"dy":139,"t":6156}],[{"dx":-265,"dy":45,"t":7114},{"dx":-249,"dy":33,"t":7174},{"dx":-225,"dy":33,"t":7216},{"dx":-194,"dy":24,"t":7275},{"dx":-172,"dy":25,"t":7315},{"dx":-144,"dy":36,"t":7375},{"dx":-137,"dy":43,"t":7418},{"dx":-95,"dy":66,"t":7478},{"dx":-90,"dy":67,"t":7518},{"dx":-106,"dy":75,"t":7578},{"dx":-113,"dy":77,"t":7616},{"dx":-104,"dy":86,"t":7679},{"dx":-102,"dy":81,"t":7719},{"dx":-80,"dy":102,"t":7787},{"dx":-69,"dy":106,"t":7847},{"dx":-108,"dy":104,"t":7911},{"dx":-134,"dy":99,"t":7951},{"dx":-142,"dy":93,"t":8015},{"dx":-129,"dy":92,"t":8056},{"dx":-136,"dy":111,"t":8122},{"dx":-133,"dy":109,"t":8163},{"dx":-158,"dy":101,"t":8224},{"dx":-173,"dy":86,"t":8267},{"dx":-182,"dy":103,"t":8328},{"dx":-175,"dy":111,"t":8369},{"dx":-179,"dy":120,"t":8429},{"dx":-178,"dy":118,"t":8469},{"dx":-178,"dy":107,"t":8529},{"dx":-171,"dy":96,"t":8569},{"dx":-153,"dy":84,"t":8630},{"dx":-142,"dy":82,"t":8671},{"dx":-119,"dy":87,"t":8730},{"dx":-108,"dy":92,"t":8770},{"dx":-101,"dy":90,"t":8829},{"dx":-103,"dy":86,"t":8868},{"dx":-109,"dy":79,"t":8931},{"dx":-112,"dy":76,"t":8971},{"dx":-145,"dy":95,"t":9030},{"dx":-169,"dy":107,"t":9131},{"dx":-195,"dy":106,"t":9168}],[{"dx":101,"dy":138,"t":10130},{"dx":77,"dy":132,"t":10199},{"dx":68,"dy":123,"t":10243},{"dx":56,"dy":121,"t":10303},{"dx":50,"dy":104,"t":10343},{"dx":31,"dy":84,"t":10405},{"dx":17,"dy":65,"t":10446},{"dx":-13,"dy":88,"t":10515},{"dx":-30,"dy":99,"t":10556},{"dx":-37,"dy":92,"t":10621},{"dx":-27,"dy":85,"t":10662},{"dx":-87,"dy":96,"t":10733},{"dx":-84,"dy":104,"t":10775},{"dx":-126,"dy":122,"t":10849},{"dx":-151,"dy":121,"t":10892},{"dx":-123,"dy":122,"t":10965},{"dx":-92,"dy":118,"t":11007},{"dx":-45,"dy":118,"t":11070},{"dx":-29,"dy":121,"t":11111},{"dx":-11,"dy":133,"t":11175},{"dx":10,"dy":143,"t":11216},{"dx":30,"dy":138,"t":11283},{"dx":32,"dy":128,"t":11324},{"dx":11,"dy":114,"t":11388},{"dx":7,"dy":111,"t":11439},{"dx":-45,"dy":95,"t":11500},{"dx":-50,"dy":88,"t":11543},{"dx":-69,"dy":101,"t":11609},{"dx":-65,"dy":107,"t":11651},{"dx":-71,"dy":113,"t":11712},{"dx":-79,"dy":114,"t":11764},{"dx":-73,"dy":126,"t":11828},{"dx":-81,"dy":131,"t":11869},{"dx":-52,"dy":117,"t":11936},{"dx":-32,"dy":122,"t":11976},{"dx":6,"dy":134,"t":12038},{"dx":23,"dy":141,"t":12135},{"dx":42,"dy":113,"t":12172}],[{"dx":-178,"dy":80,"t":13150},{"dx":-179,"dy":87,"t":13191},{"dx":-145,"dy":87,"t":13254},{"dx":-122,"dy":92,"t":13296},{"dx":-85,"dy":104,"t":13365},{"dx":-70,"dy":109,"t":13412},{"dx":-46,"dy":85,"t":13478},{"dx":-44,"dy":66,"t":13531},{"dx":-80,"dy":44,"t":13598},{"dx":-105,"dy":36,"t":13641},{"dx":-105,"dy":49,"t":13702},{"dx":-100,"dy":53,"t":13742},{"dx":-93,"dy":62,"t":13803},{"dx":-81,"dy":71,"t":13843},{"dx":-59,"dy":95,"t":13903},{"dx":-58,"dy":107,"t":13949},{"dx":-72,"dy":119,"t":14012},{"dx":-70,"dy":125,"t":14053},{"dx":-45,"dy":124,"t":14114},{"dx":-37,"dy":119,"t":14153},{"dx":-36,"dy":122,"t":14214},{"dx":-35,"dy":126,"t":14252},{"dx":-11,"dy":113,"t":14314},{"dx":5,"dy":106,"t":14353},{"dx":16,"dy":95,"t":14416},{"dx":14,"dy":90,"t":14459},{"dx":12,"dy":77,"t":14525},{"dx":25,"dy":77,"t":14567},{"dx":5,"dy":75,"t":14634},{"dx":-1,"dy":71,"t":14677},{"dx":-56,"dy":105,"t":14736},{"dx":-77,"dy":116,"t":14776},{"dx":-111,"dy":94,"t":14836},{"dx":-120,"dy":90,"t":14879},{"dx":-112,"dy":66,"t":14943},{"dx":-99,"dy":57,"t":14984},{"dx":-78,"dy":47,"t":15048},{"dx":-63,"dy":54,"t":15151},{"dx":-82,"dy":52,"t":15189}],[{"dx":-114,"dy":107,"t":16210},{"dx":-108,"dy":103,"t":16276},{"dx":-103,"dy":101,"t":16315},{"dx":-45,"dy":108,"t":16374},{"dx":-25,"dy":122,"t":16416},{"dx":-75,"dy":150,"t":16476},{"dx":-103,"dy":153,"t":16516},{"dx":-148,"dy":153,"t":16577},{"dx":-172,"dy":156,"t":16617},{"dx":-212,"dy":161,"t":16679},{"dx":-235,"dy":167,"t":16719},{"dx":-249,"dy":167,"t":16778},{"dx":-238,"dy":167,"t":16819},{"dx":-210,"dy":165,"t":16878},{"dx":-190,"dy":161,"t":16918},{"dx":-87,"dy":222,"t":16981},{"dx":-14,"dy":276,"t":170