[{"rt":49146.639999999024,"stimulus":"\n      <p>You can elect whether to include your data in our research dataset.</p>\n    ","response":0,"question":"consent","trial_type":"html-button-response","trial_index":0,"time_elapsed":49150,"internal_node_id":"0.0-0.0","user_agent":"Mozilla/5.0 (Macintosh; Intel Mac OS X 10_13_6) AppleWebKit/537.36 (KHTML, like Gecko) Chrome/88.0.4324.192 Safari/537.36","screen_width_px":1440,"screen_height_px":900},{"rt":1159.8200000007637,"stimulus":"\n      <p>This experiment uses your camera for eye tracking.</p>\n      <p>No video is saved from this experiment. The only data recorded are predictions about where you are looking.</p>\n      <p>Before we begin, there are a few things to do that can improve the accuracy of the eye tracking.</p>\n    ","response":0,"trial_type":"html-button-response","trial_index":1,"time_elapsed":50312,"internal_node_id":"0.0-1.0","user_agent":"Mozilla/5.0 (Macintosh; Intel Mac OS X 10_13_6) AppleWebKit/537.36 (KHTML, like Gecko) Chrome/88.0.4324.192 Safari/537.36","screen_width_px":1440,"screen_height_px":900},{"rt":707.9049999956624,"stimulus":"\n      <p>If you wear glasses and can complete the task without them, please remove your glasses.</p>\n    ","response":0,"trial_type":"html-button-response","trial_index":2,"time_elapsed":51021,"internal_node_id":"0.0-2.0","user_agent":"Mozilla/5.0 (Macintosh; Intel Mac OS X 10_13_6) AppleWebKit/537.36 (KHTML, like Gecko) Chrome/88.0.4324.192 Safari/537.36","screen_width_px":1440,"screen_height_px":900},{"rt":623.1649999972433,"stimulus":"\n      <p>Please close additional browser tabs and apps running in the background.<br>The eye tracker works best when there are fewer things running at the same time.</p>\n    ","response":0,"trial_type":"html-button-response","trial_index":3,"time_elapsed":51645,"internal_node_id":"0.0-3.0","user_agent":"Mozilla/5.0 (Macintosh; Intel Mac OS X 10_13_6) AppleWebKit/537.36 (KHTML, like Gecko) Chrome/88.0.4324.192 Safari/537.36","screen_width_px":1440,"screen_height_px":900},{"rt":1129.1549999950803,"stimulus":"\n      <p>Try to avoid bright lights behind you.<br>The eye tracker works best if your face is well lit from the front.<br>If you can, adjust the lighting in your room.</p>\n    ","response":0,"trial_type":"html-button-response","trial_index":4,"time_elapsed":52775,"internal_node_id":"0.0-4.0","user_agent":"Mozilla/5.0 (Macintosh; Intel Mac OS X 10_13_6) AppleWebKit/537.36 (KHTML, like Gecko) Chrome/88.0.4324.192 Safari/537.36","screen_width_px":1440,"screen_height_px":900},{"rt":934.5749999993131,"stimulus":"\n      <p>In order to participate you must allow the experiment to use your camera.</p>\n      <p>You will be prompted to do this on the next screen.</p>\n    ","response":0,"trial_type":"html-button-response","trial_index":5,"time_elapsed":53711,"internal_node_id":"0.0-5.0","user_agent":"Mozilla/5.0 (Macintosh; Intel Mac OS X 10_13_6) AppleWebKit/537.36 (KHTML, like Gecko) Chrome/88.0.4324.192 Safari/537.36","screen_width_px":1440,"screen_height_px":900},{"trial_type":"webgazer-init-camera","trial_index":6,"time_elapsed":64737,"internal_node_id":"0.0-6.0","user_agent":"Mozilla/5.0 (Macintosh; Intel Mac OS X 10_13_6) AppleWebKit/537.36 (KHTML, like Gecko) Chrome/88.0.4324.192 Safari/537.36","screen_width_px":1440,"screen_height_px":900},{"rt":967.4799999993411,"stimulus":"\n      <p>Now you'll complete a series of calibrations and validations.</p>\n      <p>The calibration will be reset after each round, so it is OK to move a little bit<br>in between the end of a validation and the start of the next calibration.</p>\n      <p>Please keep your head still during each round.</p>\n    ","response":0,"trial_type":"html-button-response","trial_index":7,"time_elapsed":65706,"internal_node_id":"0.0-7.0","user_agent":"Mozilla/5.0 (Macintosh; Intel Mac OS X 10_13_6) AppleWebKit/537.36 (KHTML, like Gecko) Chrome/88.0.4324.192 Safari/537.36","screen_width_px":1440,"screen_height_px":900},{"success":true,"trial_type":"fullscreen","trial_index":8,"time_elapsed":67386,"internal_node_id":"0.0-8.0","user_agent":"Mozilla/5.0 (Macintosh; Intel Mac OS X 10_13_6) AppleWebKit/537.36 (KHTML, like Gecko) Chrome/88.0.4324.192 Safari/537.36","screen_width_px":1440,"screen_height_px":900},{"rt":11525.350000003527,"stimulus":"\n      <p>During the calibration phase, please look at each dot and click on it.</p>\n      <p>During the validation phase, just look at each dot while it is on the screen.</p>\n    ","response":0,"trial_type":"html-button-response","trial_index":9,"time_elapsed":78912,"internal_node_id":"0.0-9.0","user_agent":"Mozilla/5.0 (Macintosh; Intel Mac OS X 10_13_6) AppleWebKit/537.36 (KHTML, like Gecko) Chrome/88.0.4324.192 Safari/537.36","screen_width_px":1440,"screen_height_px":900},{"rt":2211.29999999539,"stimulus":"\n      <p>Calibration phase next.</p>\n      <p>Click on the dots.</p>\n    ","response":0,"trial_type":"html-button-response","trial_index":10,"time_elapsed":81125,"internal_node_id":"0.0-10.0-0.0","user_agent":"Mozilla/5.0 (Macintosh; Intel Mac OS X 10_13_6) AppleWebKit/537.36 (KHTML, like Gecko) Chrome/88.0.4324.192 Safari/537.36","screen_width_px":1440,"screen_height_px":900},{"trial_type":"webgazer-calibrate","trial_index":11,"time_elapsed":118063,"internal_node_id":"0.0-10.0-1.0","user_agent":"Mozilla/5.0 (Macintosh; Intel Mac OS X 10_13_6) AppleWebKit/537.36 (KHTML, like Gecko) Chrome/88.0.4324.192 Safari/537.36","screen_width_px":1440,"screen_height_px":900},{"rt":852.180000001681,"stimulus":"\n      <p>Validation phase next.</p>\n      <p>Look at the dots.</p>\n    ","response":0,"trial_type":"html-button-response","trial_index":12,"time_elapsed":118917,"internal_node_id":"0.0-10.0-2.0","user_agent":"Mozilla/5.0 (Macintosh; Intel Mac OS X 10_13_6) AppleWebKit/537.36 (KHTML, like Gecko) Chrome/88.0.4324.192 Safari/537.36","screen_width_px":1440,"screen_height_px":900},{"raw_gaze":[[{"dx":559,"dy":210,"t":1099},{"dx":452,"dy":262,"t":1152},{"dx":399,"dy":293,"t":1190},{"dx":229,"dy":245,"t":1246},{"dx":165,"dy":192,"t":1282},{"dx":129,"dy":131,"t":1339},{"dx":125,"dy":121,"t":1373},{"dx":219,"dy":95,"t":1431},{"dx":272,"dy":96,"t":1467},{"dx":435,"dy":135,"t":1523},{"dx":550,"dy":181,"t":1557},{"dx":610,"dy":224,"t":1619},{"dx":587,"dy":219,"t":1699},{"dx":423,"dy":253,"t":1756},{"dx":355,"dy":225,"t":1794},{"dx":324,"dy":132,"t":1851},{"dx":304,"dy":87,"t":1887},{"dx":250,"dy":51,"t":1943},{"dx":224,"dy":35,"t":1978},{"dx":214,"dy":-45,"t":2035},{"dx":203,"dy":-53,"t":2070},{"dx":185,"dy":-8,"t":2124},{"dx":201,"dy":67,"t":2160},{"dx":414,"dy":130,"t":2216},{"dx":595,"dy":185,"t":2253},{"dx":689,"dy":281,"t":2309},{"dx":668,"dy":323,"t":2344},{"dx":568,"dy":352,"t":2401},{"dx":511,"dy":371,"t":2436},{"dx":398,"dy":314,"t":2492},{"dx":321,"dy":258,"t":2529},{"dx":184,"dy":173,"t":2584},{"dx":164,"dy":151,"t":2619},{"dx":214,"dy":3,"t":2674},{"dx":229,"dy":-61,"t":2710},{"dx":235,"dy":-107,"t":2763},{"dx":218,"dy":-119,"t":2795},{"dx":213,"dy":-137,"t":2850},{"dx":198,"dy":-133,"t":2885},{"dx":167,"dy":-122,"t":2940},{"dx":161,"dy":-100,"t":2976},{"dx":167,"dy":-78,"t":3032},{"dx":161,"dy":-79,"t":3072},{"dx":204,"dy":-9,"t":3104}],[{"dx":392,"dy":246,"t":4121},{"dx":296,"dy":245,"t":4176},{"dx":250,"dy":225,"t":4214},{"dx":216,"dy":189,"t":4271},{"dx":189,"dy":165,"t":4308},{"dx":165,"dy":126,"t":4366},{"dx":163,"dy":110,"t":4402},{"dx":179,"dy":102,"t":4458},{"dx":187,"dy":93,"t":4492},{"dx":194,"dy":104,"t":4548},{"dx":206,"dy":98,"t":4584},{"dx":186,"dy":96,"t":4639},{"dx":182,"dy":100,"t":4676},{"dx":213,"dy":104,"t":4732},{"dx":241,"dy":133,"t":4771},{"dx":372,"dy":271,"t":4826},{"dx":424,"dy":309,"t":4862},{"dx":438,"dy":341,"t":4923},{"dx":426,"dy":356,"t":4963},{"dx":354,"dy":318,"t":5018},{"dx":334,"dy":291,"t":5055},{"dx":296,"dy":219,"t":5110},{"dx":282,"dy":191,"t":5146},{"dx":268,"dy":143,"t":5203},{"dx":225,"dy":120,"t":5242},{"dx":231,"dy":87,"t":5300},{"dx":189,"dy":45,"t":5337},{"dx":98,"dy":14,"t":5393},{"dx":52,"dy":20,"t":5429},{"dx":120,"dy":51,"t":5486},{"dx":172,"dy":69,"t":5520},{"dx":179,"dy":56,"t":5572},{"dx":183,"dy":96,"t":5606},{"dx":173,"dy":83,"t":5663},{"dx":191,"dy":87,"t":5696},{"dx":222,"dy":56,"t":5751},{"dx":222,"dy":39,"t":5786},{"dx":232,"dy":-5,"t":5842},{"dx":237,"dy":-10,"t":5879},{"dx":236,"dy":5,"t":5936},{"dx":210,"dy":-3,"t":5973},{"dx":253,"dy":34,"t":6030},{"dx":290,"dy":59,"t":6063},{"dx":269,"dy":92,"t":6118},{"dx":257,"dy":107,"t":6138}],[{"dx":277,"dy":3.5,"t":7162},{"dx":316,"dy":-44.5,"t":7197},{"dx":310,"dy":-149.5,"t":7250},{"dx":305,"dy":-233.5,"t":7284},{"dx":215,"dy":-270.5,"t":7339},{"dx":178,"dy":-246.5,"t":7373},{"dx":221,"dy":-139.5,"t":7429},{"dx":257,"dy":-108.5,"t":7464},{"dx":237,"dy":-45.5,"t":7520},{"dx":206,"dy":-14.5,"t":7556},{"dx":130,"dy":25.5,"t":7611},{"dx":89,"dy":35.5,"t":7647},{"dx":45,"dy":28.5,"t":7704},{"dx":60,"dy":7.5,"t":7738},{"dx":41,"dy":30.5,"t":7792},{"dx":41,"dy":27.5,"t":7834},{"dx":54,"dy":87.5,"t":7949},{"dx":63,"dy":106.5,"t":7983},{"dx":126,"dy":81.5,"t":8039},{"dx":175,"dy":66.5,"t":8073},{"dx":224,"dy":67.5,"t":8128},{"dx":234,"dy":59.5,"t":8163},{"dx":283,"dy":38.5,"t":8217},{"dx":339,"dy":40.5,"t":8250},{"dx":339,"dy":53.5,"t":8307},{"dx":309,"dy":45.5,"t":8341},{"dx":239,"dy":42.5,"t":8396},{"dx":213,"dy":39.5,"t":8431},{"dx":159,"dy":-28.5,"t":8485},{"dx":128,"dy":-29.5,"t":8519},{"dx":89,"dy":10.5,"t":8575},{"dx":75,"dy":53.5,"t":8610},{"dx":85,"dy":-9.5,"t":8667},{"dx":81,"dy":-66.5,"t":8700},{"dx":59,"dy":-72.5,"t":8755},{"dx":64,"dy":-50.5,"t":8788},{"dx":132,"dy":-33.5,"t":8844},{"dx":164,"dy":-28.5,"t":8879},{"dx":168,"dy":-19.5,"t":8933},{"dx":146,"dy":-14.5,"t":8972},{"dx":152,"dy":-0.5,"t":9028},{"dx":171,"dy":1.5,"t":9065},{"dx":149,"dy":32.5,"t":9121},{"dx":137,"dy":41.5,"t":9137}],[{"dx":257,"dy":223.5,"t":10147},{"dx":255,"dy":215.5,"t":10203},{"dx":259,"dy":149.5,"t":10240},{"dx":186,"dy":64.5,"t":10295},{"dx":170,"dy":39.5,"t":10329},{"dx":150,"dy":0.5,"t":10384},{"dx":144,"dy":-5.5,"t":10421},{"dx":121,"dy":-6.5,"t":10478},{"dx":110,"dy":-12.5,"t":10513},{"dx":171,"dy":-12.5,"t":10568},{"dx":207,"dy":-16.5,"t":10605},{"dx":177,"dy":-53.5,"t":10661},{"dx":151,"dy":-62.5,"t":10696},{"dx":80,"dy":-31.5,"t":10752},{"dx":76,"dy":-20.5,"t":10790},{"dx":93,"dy":43.5,"t":10844},{"dx":103,"dy":70.5,"t":10880},{"dx":86,"dy":119.5,"t":10936},{"dx":90,"dy":135.5,"t":10977},{"dx":209,"dy":158.5,"t":11035},{"dx":287,"dy":196.5,"t":11073},{"dx":319,"dy":294.5,"t":11130},{"dx":299,"dy":331.5,"t":11163},{"dx":224,"dy":276.5,"t":11220},{"dx":178,"dy":218.5,"t":11254},{"dx":133,"dy":152.5,"t":11311},{"dx":126,"dy":121.5,"t":11347},{"dx":109,"dy":60.5,"t":11402},{"dx":105,"dy":35.5,"t":11440},{"dx":109,"dy":10.5,"t":11496},{"dx":110,"dy":8.5,"t":11532},{"dx":91,"dy":26.5,"t":11586},{"dx":102,"dy":70.5,"t":11619},{"dx":96,"dy":133.5,"t":11674},{"dx":92,"dy":144.5,"t":11708},{"dx":75,"dy":120.5,"t":11766},{"dx":68,"dy":115.5,"t":11803},{"dx":65,"dy":101.5,"t":11860},{"dx":59,"dy":93.5,"t":11894},{"dx":99,"dy":43.5,"t":11948},{"dx":124,"dy":4.5,"t":11984},{"dx":122,"dy":-31.5,"t":12040},{"dx":112,"dy":-44.5,"t":12075},{"dx":105,"dy":-25.5,"t":12134},{"dx":121,"dy":11.5,"t":12151}],[{"dx":24,"dy":-95,"t":13143},{"dx":180,"dy":-176,"t":13201},{"dx":327,"dy":-283,"t":13236},{"dx":283,"dy":-209,"t":13292},{"dx":304,"dy":-180,"t":13330},{"dx":199,"dy":-91,"t":13385},{"dx":165,"dy":-42,"t":13422},{"dx":68,"dy":59,"t":13479},{"dx":11,"dy":109,"t":13516},{"dx":-36,"dy":33,"t":13574},{"dx":-71,"dy":34,"t":13610},{"dx":-84,"dy":-105,"t":13665},{"dx":-66,"dy":-190,"t":13699},{"dx":-55,"dy":-236,"t":13754},{"dx":-55,"dy":-232,"t":13791},{"dx":-40,"dy":-170,"t":13845},{"dx":-36,"dy":-130,"t":13880},{"dx":-73,"dy":-37,"t":13934},{"dx":-101,"dy":-16,"t":13979},{"dx":-143,"dy":-13,"t":14091},{"dx":-159,"dy":-27,"t":14128},{"dx":-120,"dy":6,"t":14186},{"dx":-80,"dy":6,"t":14227},{"dx":-54,"dy":52,"t":14283},{"dx":-40,"dy":55,"t":14320},{"dx":-71,"dy":59,"t":14376},{"dx":-86,"dy":46,"t":14416},{"dx":-71,"dy":66,"t":14470},{"dx":-73,"dy":67,"t":14507},{"dx":-63,"dy":95,"t":14567},{"dx":-62,"dy":85,"t":14601},{"dx":-64,"dy":86,"t":14656},{"dx":-66,"dy":93,"t":14689},{"dx":-81,"dy":95,"t":14745},{"dx":-81,"dy":98,"t":14779},{"dx":-89,"dy":83,"t":14835},{"dx":-101,"dy":85,"t":14870},{"dx":-58,"dy":16,"t":14925},{"dx":-63,"dy":15,"t":14960},{"dx":-58,"dy":22,"t":15015},{"dx":-56,"dy":52,"t":15049},{"dx":-38,"dy":48,"t":15104},{"dx":-22,"dy":32,"t":15145},{"dx":-23,"dy":32,"t":15180}],[{"dx":715,"dy":-296,"t":16165},{"dx":742,"dy":-283,"t":16220},{"dx":763,"dy":-271,"t":16255},{"dx":691,"dy":-228,"t":16307},{"dx":638,"dy":-197,"t":16339},{"dx":556,"dy":-159,"t":16396},{"dx":521,"dy":-141,"t":16430},{"dx":533,"dy":-149,"t":16485},{"dx":582,"dy":-146,"t":16518},{"dx":543,"dy":-222,"t":16575},{"dx":549,"dy":-242,"t":16610},{"dx":614,"dy":-315,"t":16667},{"dx":650,"dy":-355,"t":16704},{"dx":701,"dy":-327,"t":16758},{"dx":731,"dy":-291,"t":16794},{"dx":691,"dy":-181,"t":16849},{"dx":666,"dy":-132,"t":16884},{"dx":620,"dy":-77,"t":16937},{"dx":586,"dy":-76,"t":16971},{"dx":548,"dy":-86,"t":17027},{"dx":504,"dy":-111,"t":17062},{"dx":438,"dy":-134,"t":17119},{"dx":406,"dy":-152,"t":17158},{"dx":392,"dy":-147,"t":17212},{"dx":392,"dy":-166,"t":17246},{"dx":479,"dy":-148,"t":17302},{"dx":574,"dy":-170,"t":17340},{"dx":669,"dy":-167,"t":17397},{"dx":716,"dy":-153,"t":17433},{"dx":775,"dy":-141,"t":17488},{"dx":774,"dy":-110,"t":17523},{"dx":755,"dy":-101,"t":17580},{"dx":729,"dy":-120,"t":17614},{"dx":575,"dy":-113,"t":17669},{"dx":522,"dy":-87,"t":17706},{"dx":490,"dy":-127,"t":17765},{"dx":491,"dy":-162,"t":17800},{"dx":497,"dy":-184,"t":17856},{"dx":502,"dy":-176,"t":17889},{"dx":465,"dy":-171,"t":17945},{"dx":468,"dy":-169,"t":17978},{"dx":453,"dy":-195,"t":18034},{"dx":437,"dy":-217,"t":18071},{"dx":404,"dy":-234,"t":18129},{"dx":392,"dy":-226,"t":18167},{"dx":364,"dy":-198,"t":18201}],[{"dx":-1,"dy":156.5,"t":19218},{"dx":-1,"dy":179.5,"t":19276},{"dx":-5,"dy":170.5,"t":19315},{"dx":21,"dy":118.5,"t":19370},{"dx":16,"dy":55.5,"t":19407},{"dx":87,"dy":-53.5,"t":19462},{"dx":134,"dy":-89.5,"t":19497},{"dx":126,"dy":-14.5,"t":19554},{"dx":118,"dy":17.5,"t":19592},{"dx":78,"dy":59.5,"t":19645},{"dx":29,"dy":94.5,"t":19679},{"dx":-20,"dy":176.5,"t":19735},{"dx":-34,"dy":202.5,"t":19771},{"dx":1,"dy":240.5,"t":19831},{"dx":-2,"dy":248.5,"t":19864},{"dx":11,"dy":232.5,"t":19921},{"dx":30,"dy":196.5,"t":19956},{"dx":10,"dy":190.5,"t":20026},{"dx":-15,"dy":199.5,"t":20123},{"dx":-20,"dy":141.5,"t":20179},{"dx":-11,"dy":108.5,"t":20218},{"dx":13,"dy":58.5,"t":20275},{"dx":8,"dy":54.5,"t":20311},{"dx":-1,"dy":92.5,"t":20366},{"dx":-4,"dy":98.5,"t":20401},{"dx":-26,"dy":148.5,"t":20458},{"dx":-16,"dy":166.5,"t":20492},{"dx":18,"dy":148.5,"t":20548},{"dx":43,"dy":143.5,"t":20582},{"dx":63,"dy":121.5,"t":20637},{"dx":62,"dy":107.5,"t":20671},{"dx":29,"dy":75.5,"t":20726},{"dx":12,"dy":57.5,"t":20760},{"dx":-10,"dy":57.5,"t":20814},{"dx":-15,"dy":70.5,"t":20847},{"dx":2,"dy":27.5,"t":20900},{"dx":-3,"dy":18.5,"t":20937},{"dx":-19,"dy":-35.5,"t":20999},{"dx":-31,"dy":-43.5,"t":21033},{"dx":-42,"dy":-21.5,"t":21089},{"dx":-40,"dy":-6.5,"t":21125},{"dx":-21,"dy":12.5,"t":21179},{"dx":-21,"dy":10.5,"t":21223},{"dx":-40,"dy":43.5,"t":21256}],[{"dx":125,"dy":206.5,"t":22291},{"dx":127,"dy":208.5,"t":22342},{"dx":107,"dy":216.5,"t":22399},{"dx":102,"dy":216.5,"t":22437},{"dx":115,"dy":217.5,"t":22495},{"dx":121,"dy":205.5,"t":22532},{"dx":87,"dy":131.5,"t":22593},{"dx":65,"dy":97.5,"t":22633},{"dx":44,"dy":72.5,"t":22689},{"dx":14,"dy":66.5,"t":22726},{"dx":25,"dy":86.5,"t":22780},{"dx":4,"dy":86.5,"t":22814},{"dx":69,"dy":166.5,"t":22869},{"dx":115,"dy":194.5,"t":22905},{"dx":77,"dy":258.5,"t":22962},{"dx":71,"dy":316.5,"t":22997},{"dx":69,"dy":276.5,"t":23053},{"dx":73,"dy":254.5,"t":23090},{"dx":63,"dy":214.5,"t":23145},{"dx":42,"dy":203.5,"t":23180},{"dx":20,"dy":205.5,"t":23237},{"dx":3,"dy":208.5,"t":23273},{"dx":-8,"dy":179.5,"t":23331},{"dx":4,"dy":179.5,"t":23367},{"dx":39,"dy":208.5,"t":23421},{"dx":56,"dy":217.5,"t":23455},{"dx":52,"dy":198.5,"t":23508},{"dx":52,"dy":161.5,"t":23546},{"dx":91,"dy":152.5,"t":23600},{"dx":122,"dy":129.5,"t":23634},{"dx":146,"dy":114.5,"t":23689},{"dx":147,"dy":110.5,"t":23722},{"dx":148,"dy":110.5,"t":23776},{"dx":148,"dy":114.5,"t":23812},{"dx":65,"dy":125.5,"t":23868},{"dx":36,"dy":129.5,"t":23902},{"dx":9,"dy":150.5,"t":23958},{"dx":2,"dy":166.5,"t":23992},{"dx":9,"dy":142.5,"t":24048},{"dx":5,"dy":158.5,"t":24082},{"dx":33,"dy":144.5,"t":24136},{"dx":51,"dy":126.5,"t":24171},{"dx":21,"dy":154.5,"t":24226},{"dx":20,"dy":162.5,"t":24269},{"dx":10,"dy":165.5,"t":24303}],[{"dx":-15,"dy":77,"t":25306},{"dx":-26,"dy":43,"t":25361},{"dx":-30,"dy":36,"t":25396},{"dx":-5,"dy":19,"t":25451},{"dx":-32,"dy":56,"t":25487},{"dx":36,"dy":112,"t":25546},{"dx":34,"dy":110,"t":25580},{"dx":37,"dy":210,"t":25634},{"dx":24,"dy":214,"t":25669},{"dx":17,"dy":217,"t":25725},{"dx":43,"dy":228,"t":25759},{"dx":45,"dy":172,"t":25815},{"dx":40,"dy":168,"t":25850},{"dx":114,"dy":162,"t":25913},{"dx":158,"dy":167,"t":26001},{"dx":45,"dy":263,"t":26060},{"dx":-21,"dy":290,"t":26096},{"dx":-82,"dy":334,"t":26150},{"dx":-67,"dy":347,"t":26185},{"dx":-54,"dy":361,"t":26242},{"dx":-76,"dy":364,"t":26278},{"dx":-73,"dy":334,"t":26333},{"dx":-81,"dy":297,"t":26368},{"dx":-115,"dy":224,"t":26424},{"dx":-115,"dy":195,"t":26459},{"dx":-100,"dy":94,"t":26514},{"dx":-88,"dy":49,"t":26552},{"dx":-63,"dy":-14,"t":26610},{"dx":-54,"dy":20,"t":26645},{"dx":-4,"dy":35,"t":26700},{"dx":16,"dy":33,"t":26735},{"dx":-41,"dy":52,"t":26790},{"dx":-99,"dy":87,"t":26822},{"dx":-124,"dy":109,"t":26876},{"dx":-138,"dy":112,"t":26912},{"dx":-76,"dy":101,"t":26966},{"dx":-37,"dy":110,"t":27002},{"dx":-48,"dy":132,"t":27058},{"dx":-51,"dy":160,"t":27095},{"dx":-68,"dy":164,"t":27148},{"dx":-64,"dy":164,"t":27185},{"dx":-47,"dy":146,"t":27240},{"dx":-22,"dy":142,"t":27282},{"dx":44,"dy":135,"t":27314}],[{"dx":-241,"dy":-183,"t":28336},{"dx":-212,"dy":-211,"t":28371},{"dx":-194,"dy":-260,"t":28428},{"dx":-188,"dy":-229,"t":28463},{"dx":-189,"dy":-195,"t":28519},{"dx":-193,"dy":-183,"t":28554},{"dx":-137,"dy":-135,"t":28611},{"dx":-94,"dy":-129,"t":28646},{"dx":-121,"dy":-120,"t":28701},{"dx":-151,"dy":-101,"t":28739},{"dx":-173,"dy":-41,"t":28794},{"dx":-172,"dy":-33,"t":28830},{"dx":-232,"dy":-50,"t":28886},{"dx":-238,"dy":-56,"t":28921},{"dx":-240,"dy":-57,"t":28976},{"dx":-272,"dy":-44,"t":29012},{"dx":-280,"dy":-88,"t":29067},{"dx":-291,"dy":-93,"t":29105},{"dx":-220,"dy":-136,"t":29161},{"dx":-192,"dy":-143,"t":29199},{"dx":-180,"dy":-133,"t":29256},{"dx":-181,"dy":-139,"t":29293},{"dx":-158,"dy":-118,"t":29348},{"dx":-128,"dy":-120,"t":29381},{"dx":-103,"dy":-126,"t":29438},{"dx":-91,"dy":-122,"t":29473},{"dx":-37,"dy":-156,"t":29528},{"dx":-14,"dy":-213,"t":29563},{"dx":-137,"dy":-211,"t":29619},{"dx":-184,"dy":-215,"t":29652},{"dx":-207,"dy":-211,"t":29708},{"dx":-208,"dy":-197,"t":29744},{"dx":-202,"dy":-214,"t":29800},{"dx":-213,"dy":-219,"t":29837},{"dx":-192,"dy":-260,"t":29892},{"dx":-177,"dy":-262,"t":29926},{"dx":-172,"dy":-269,"t":29980},{"dx":-170,"dy":-278,"t":30014},{"dx":-184,"dy":-269,"t":30071},{"dx":-213,"dy":-258,"t":30105},{"dx":-223,"dy":-223,"t":30161},{"dx":-205,"dy":-197,"t":30199},{"dx":-193,"dy":-186,"t":30255},{"dx":-132,"dy":-233,"t":30293},{"dx":-194,"dy":-273,"t":30327}],[{"dx":2,"dy":-36,"t":31345},{"dx":-28,"dy":-101,"t":31383},{"dx":-61,"dy":-108,"t":31440},{"dx":-81,"dy":-76,"t":31476},{"dx":-92,"dy":-14,"t":31536},{"dx":-77,"dy":35,"t":31576},{"dx":-79,"dy":100,"t":31633},{"dx":-65,"dy":132,"t":31669},{"dx":-218,"dy":220,"t":31725},{"dx":-248,"dy":238,"t":31759},{"dx":-383,"dy":296,"t":31813},{"dx":-438,"dy":242,"t":31847},{"dx":-509,"dy":166,"t":31900},{"dx":-534,"dy":133,"t":31936},{"dx":-464,"dy":19,"t":31992},{"dx":-401,"dy":-26,"t":32027},{"dx":-353,"dy":-111,"t":32087},{"dx":-346,"dy":-125,"t":32177},{"dx":-339,"dy":-122,"t":32234},{"dx":-317,"dy":-114,"t":32268},{"dx":-291,"dy":-89,"t":32325},{"dx":-253,"dy":-75,"t":32359},{"dx":-165,"dy":44,"t":32411},{"dx":-116,"dy":137,"t":32447},{"dx":-49,"dy":303,"t":32505},{"dx":-51,"dy":352,"t":32540},{"dx":-114,"dy":422,"t":32596},{"dx":-151,"dy":440,"t":32631},{"dx":-178,"dy":466,"t":32686},{"dx":-190,"dy":460,"t":32722},{"dx":-211,"dy":347,"t":32776},{"dx":-218,"dy":257,"t":32811},{"dx":-158,"dy":118,"t":32866},{"dx":-118,"dy":88,"t":32903},{"dx":-115,"dy":50,"t":32958},{"dx":-109,"dy":30,"t":32993},{"dx":-139,"dy":39,"t":33047},{"dx":-139,"dy":22,"t":33082},{"dx":-226,"dy":-6,"t":33142},{"dx":-262,"dy":-32,"t":33177},{"dx":-286,"dy":-63,"t":33235},{"dx":-295,"dy":-80,"t":33270},{"dx":-277,"dy":-68,"t":33333},{"dx":-266,"dy":-45,"t":33346}],[{"dx":15,"dy":-12,"t":34362},{"dx":4,"dy":-22,"t":34394},{"dx":12,"dy":-30,"t":34448},{"dx":22,"dy":-28,"t":34485},{"dx":50,"dy":-10,"t":34541},{"dx":66,"dy":5,"t":34577},{"dx":168,"dy":36,"t":34635},{"dx":233,"dy":48,"t":34670},{"dx":244,"dy":61,"t":34726},{"dx":202,"dy":100,"t":34762},{"dx":205,"dy":77,"t":34819},{"dx":244,"dy":47,"t":34855},{"dx":195,"dy":121,"t":34910},{"dx":156,"dy":172,"t":34947},{"dx":200,"dy":160,"t":35007},{"dx":201,"dy":133,"t":35043},{"dx":195,"dy":102,"t":35099},{"dx":189,"dy":96,"t":35137},{"dx":183,"dy":107,"t":35195},{"dx":191,"dy":96,"t":35230},{"dx":188,"dy":84,"t":35288},{"dx":180,"dy":82,"t":35324},{"dx":239,"dy":64,"t":35378},{"dx":270,"dy":28,"t":35413},{"dx":230,"dy":-7,"t":35467},{"dx":211,"dy":-30,"t":35505},{"dx":182,"dy":-8,"t":35561},{"dx":196,"dy":-15,"t":35595},{"dx":186,"dy":63,"t":35654},{"dx":188,"dy":105,"t":35689},{"dx":162,"dy":104,"t":35742},{"dx":170,"dy":105,"t":35778},{"dx":140,"dy":104,"t":35833},{"dx":136,"dy":84,"t":35870},{"dx":137,"dy":92,"t":35926},{"dx":135,"dy":103,"t":35962},{"dx":111,"dy":84,"t":36015},{"dx":113,"dy":64,"t":36047},{"dx":116,"dy":-19,"t":36106},{"dx":116,"dy":-68,"t":36145},{"dx":106,"dy":-40,"t":36207},{"dx":105,"dy":-14,"t":36243},{"dx":109,"dy":34,"t":36298},{"dx":118,"dy":53,"t":36341},{"dx":160,"dy":71,"t":36374}],[{"dx":363,"dy":-216,"t":37383},{"dx":415,"dy":-208,"t":37437},{"dx":447,"dy":-214,"t":37472},{"dx":491,"dy":-147,"t":37529},{"dx":531,"dy":-145,"t":37564},{"dx":484,"dy":-73,"t":37620},{"dx":446,"dy":-29,"t":37652},{"dx":450,"dy":-28,"t":37710},{"dx":476,"dy":-58,"t":37743},{"dx":481,"dy":-104,"t":37799},{"dx":481,"dy":-150,"t":37835},{"dx":481,"dy":-184,"t":37892},{"dx":480,"dy":-180,"t":37926},{"dx":463,"dy":-191,"t":37982},{"dx":452,"dy":-175,"t":38017},{"dx":474,"dy":-203,"t":38071},{"dx":496,"dy":-205,"t":38110},{"dx":521,"dy":-196,"t":38169},{"dx":530,"dy":-193,"t":38262},{"dx":564,"dy":-179,"t":38317},{"dx":576,"dy":-223,"t":38353},{"dx":535,"dy":-231,"t":38407},{"dx":489,"dy":-247,"t":38444},{"dx":394,"dy":-172,"t":38503},{"dx":318,"dy":-138,"t":38537},{"dx":243,"dy":-68,"t":38593},{"dx":191,"dy":-53,"t":38628},{"dx":268,"dy":-3,"t":38686},{"dx":284,"dy":-29,"t":38721},{"dx":343,"dy":-37,"t":38776},{"dx":381,"dy":-35,"t":38811},{"dx":439,"dy":-52,"t":38868},{"dx":497,"dy":-51,"t":38906},{"dx":531,"dy":-72,"t":38962},{"dx":528,"dy":-140,"t":38996},{"dx":561,"dy":-163,"t":39051},{"dx":550,"dy":-192,"t":39089},{"dx":507,"dy":-273,"t":39145},{"dx":486,"dy":-270,"t":39178},{"dx":422,"dy":-289,"t":39233},{"dx":411,"dy":-292,"t":39268},{"dx":309,"dy":-206,"t":39326}]],"percent_in_roi":[0,6.666666666666667,40.909090909090914,53.333333333333336,75,0,68.18181818181817,22.22222222222222,45.45454545454545,0,29.545454545454547,31.11111111111111,0],"average_offset":[{"x":320.29545454545456,"y":107.81818181818181,"r":290.5648671807637},{"x":237.64444444444445,"y":126.15555555555555,"r":85.15264434828887},{"x":170.11363636363637,"y":-13.159090909090908,"r":156.0747925803387},{"x":142.77777777777777,"y":77.1,"r":84.06114470659269},{"x":-19.954545454545453,"y":-15.977272727272727,"r":165.20841984777442},{"x":571.804347826087,"y":-179.41304347826087,"r":172.78991094378765},{"x":11.659090909090908,"y":91.77272727272727,"r":111.13663752043719},{"x":62.13333333333333,"y":169.2111111111111,"r":60.19441752550288},{"x":-28.704545454545453,"y":155.25,"r":154.13722398850743},{"x":-180.62222222222223,"y":-168.64444444444445,"r":76.94862804511003},{"x":-213.8181818181818,"y":87.8409090909091,"r":282.9182261448586},{"x":155.0888888888889,"y":52.93333333333333,"r":66.61140302039642},{"x":447.35714285714283,"y":-150.33333333333334,"r":162.2917191038105}],"samples_per_sec":"21.62","clicks":25,"pattern":"spread","trial_type":"webgazer-validate","trial_index":13,"time_elapsed":159259,"internal_node_id":"0.0-10.0-3.0","validation_points":[[15,15],[25,25],[37.5,62.5],[37.5,37.5],[75,75],[15,85],[62.5,62.5],[62.5,37.5],[75,25],[85,85],[85,15],[50,50],[25,75]],"user_agent":"Mozilla/5.0 (Macintosh; Intel Mac OS X 10_13_6) AppleWebKit/537.36 (KHTML, like Gecko) Chrome/88.0.4324.192 Safari/537.36","screen_width_px":1440,"screen_height_px":900},{"rt":1597.1100000024308,"stimulus":"\n      <p>Round complete.</p>\n      <p>You can move a little bit, but please try to return you head to the same general location before continuing.</p>\n    ","response":0,"trial_type":"html-button-response","trial_index":14,"time_elapsed":160860,"internal_node_id":"0.0-10.0-4.0","user_agent":"Mozilla/5.0 (Macintosh; Intel Mac OS X 10_13_6) AppleWebKit/537.36 (KHTML, like Gecko) Chrome/88.0.4324.192 Safari/537.36","screen_width_px":1440,"screen_height_px":900},{"trial_type":"webgazer-init-camera","trial_index":15,"time_elapsed":166326,"internal_node_id":"0.0-10.0-5.0","user_agent":"Mozilla/5.0 (Macintosh; Intel Mac OS X 10_13_6) AppleWebKit/537.36 (KHTML, like Gecko) Chrome/88.0.4324.192 Safari/537.36","screen_width_px":1440,"screen_height_px":900},{"rt":905.0549999956274,"stimulus":"\n      <p>Calibration phase next.</p>\n      <p>Click on the dots.</p>\n    ","response":0,"trial_type":"html-button-response","trial_index":16,"time_elapsed":167233,"internal_node_id":"0.0-10.0-0.1","user_agent":"Mozilla/5.0 (Macintosh; Intel Mac OS X 10_13_6) AppleWebKit/537.36 (KHTML, like Gecko) Chrome/88.0.4324.192 Safari/537.36","screen_width_px":1440,"screen_height_px":900},{"trial_type":"webgazer-calibrate","trial_index":17,"time_elapsed":184611,"internal_node_id":"0.0-10.0-1.1","user_agent":"Mozilla/5.0 (Macintosh; Intel Mac OS X 10_13_6) AppleWebKit/537.36 (KHTML, like Gecko) Chrome/88.0.4324.192 Safari/537.36","screen_width_px":1440,"screen_height_px":900},{"rt":890.8999999985099,"stimulus":"\n      <p>Validation phase next.</p>\n      <p>Look at the dots.</p>\n    ","response":0,"trial_type":"html-button-response","trial_index":18,"time_elapsed":185503,"internal_node_id":"0.0-10.0-2.1","user_agent":"Mozilla/5.0 (Macintosh; Intel Mac OS X 10_13_6) AppleWebKit/537.36 (KHTML, like Gecko) Chrome/88.0.4324.192 Safari/537.36","screen_width_px":1440,"screen_height_px":900},{"raw_gaze":[[{"dx":-38,"dy":372,"t":1070},{"dx":-51,"dy":320,"t":1125},{"dx":-62,"dy":274,"t":1156},{"dx":-23,"dy":170,"t":1211},{"dx":14,"dy":141,"t":1246},{"dx":21,"dy":85,"t":1303},{"dx":3,"dy":68,"t":1339},{"dx":-27,"dy":48,"t":1395},{"dx":-27,"dy":47,"t":1428},{"dx":-29,"dy":34,"t":1484},{"dx":-25,"dy":31,"t":1519},{"dx":-43,"dy":37,"t":1575},{"dx":-68,"dy":42,"t":1612},{"dx":-64,"dy":45,"t":1670},{"dx":-90,"dy":53,"t":1707},{"dx":-110,"dy":36,"t":1762},{"dx":-107,"dy":16,"t":1794},{"dx":-81,"dy":2,"t":1850},{"dx":-61,"dy":6,"t":1889},{"dx":-54,"dy":68,"t":1945},{"dx":-73,"dy":80,"t":1983},{"dx":8,"dy":67,"t":2038},{"dx":23,"dy":68,"t":2073},{"dx":30,"dy":55,"t":2128},{"dx":22,"dy":50,"t":2164},{"dx":60,"dy":71,"t":2219},{"dx":50,"dy":76,"t":2252},{"dx":126,"dy":84,"t":2310},{"dx":167,"dy":89,"t":2349},{"dx":189,"dy":79,"t":2406},{"dx":181,"dy":72,"t":2442},{"dx":162,"dy":57,"t":2496},{"dx":145,"dy":51,"t":2531},{"dx":123,"dy":39,"t":2586},{"dx":144,"dy":53,"t":2618},{"dx":159,"dy":119,"t":2674},{"dx":161,"dy":155,"t":2708},{"dx":179,"dy":193,"t":2765},{"dx":169,"dy":204,"t":2799},{"dx":83,"dy":223,"t":2854},{"dx":46,"dy":210,"t":2888},{"dx":1,"dy":173,"t":2944},{"dx":-18,"dy":143,"t":2979},{"dx":-11,"dy":110,"t":3041},{"dx":-35,"dy":122,"t":3129},{"dx":22,"dy":167,"t":3160}],[{"dx":198,"dy":85,"t":4172},{"dx":182,"dy":102,"t":4206},{"dx":164,"dy":95,"t":4260},{"dx":142,"dy":107,"t":4293},{"dx":144,"dy":75,"t":4348},{"dx":149,"dy":54,"t":4387},{"dx":239,"dy":15,"t":4446},{"dx":293,"dy":-6,"t":4478},{"dx":386,"dy":-11,"t":4533},{"dx":405,"dy":-12,"t":4565},{"dx":418,"dy":-2,"t":4620},{"dx":391,"dy":-20,"t":4653},{"dx":402,"dy":-16,"t":4709},{"dx":402,"dy":-25,"t":4745},{"dx":425,"dy":-28,"t":4802},{"dx":433,"dy":10,"t":4835},{"dx":369,"dy":3,"t":4891},{"dx":353,"dy":-11,"t":4924},{"dx":351,"dy":-92,"t":4978},{"dx":338,"dy":-119,"t":5014},{"dx":338,"dy":-65,"t":5072},{"dx":356,"dy":-46,"t":5106},{"dx":264,"dy":-1,"t":5160},{"dx":206,"dy":18,"t":5193},{"dx":248,"dy":17,"t":5248},{"dx":266,"dy":20,"t":5283},{"dx":284,"dy":46,"t":5342},{"dx":304,"dy":63,"t":5378},{"dx":283,"dy":20,"t":5435},{"dx":252,"dy":10,"t":5470},{"dx":196,"dy":-6,"t":5527},{"dx":172,"dy":-11,"t":5562},{"dx":173,"dy":-30,"t":5617},{"dx":172,"dy":-37,"t":5653},{"dx":203,"dy":-34,"t":5707},{"dx":242,"dy":-22,"t":5743},{"dx":261,"dy":-23,"t":5799},{"dx":264,"dy":-26,"t":5832},{"dx":274,"dy":-10,"t":5887},{"dx":259,"dy":-1,"t":5923},{"dx":313,"dy":36,"t":5982},{"dx":316,"dy":12,"t":6014},{"dx":328,"dy":-10,"t":6069},{"dx":355,"dy":-31,"t":6104},{"dx":336,"dy":-57,"t":6160},{"dx":271,"dy":-62,"t":6180}],[{"dx":119,"dy":-52,"t":7174},{"dx":62,"dy":-83,"t":7257},{"dx":17,"dy":-112,"t":7289},{"dx":-4,"dy":-97,"t":7343},{"dx":-1,"dy":-77,"t":7380},{"dx":-21,"dy":-66,"t":7436},{"dx":-26,"dy":-57,"t":7475},{"dx":-40,"dy":-5,"t":7530},{"dx":-25,"dy":30,"t":7562},{"dx":41,"dy":17,"t":7618},{"dx":91,"dy":-16,"t":7654},{"dx":136,"dy":-64,"t":7712},{"dx":133,"dy":-84,"t":7748},{"dx":3,"dy":-83,"t":7806},{"dx":-48,"dy":-92,"t":7842},{"dx":-76,"dy":-133,"t":7900},{"dx":-74,"dy":-159,"t":7933},{"dx":-120,"dy":-114,"t":7988},{"dx":-139,"dy":-90,"t":8023},{"dx":-185,"dy":-14,"t":8079},{"dx":-199,"dy":15,"t":8113},{"dx":-284,"dy":75,"t":8169},{"dx":-337,"dy":107,"t":8206},{"dx":-413,"dy":113,"t":8259},{"dx":-461,"dy":97,"t":8293},{"dx":-464,"dy":72,"t":8347},{"dx":-466,"dy":88,"t":8384},{"dx":-376,"dy":77,"t":8439},{"dx":-350,"dy":90,"t":8472},{"dx":-303,"dy":82,"t":8525},{"dx":-295,"dy":74,"t":8559},{"dx":-193,"dy":80,"t":8617},{"dx":-153,"dy":94,"t":8654},{"dx":-95,"dy":64,"t":8713},{"dx":-90,"dy":31,"t":8759},{"dx":-134,"dy":-17,"t":8868},{"dx":-160,"dy":-57,"t":8905},{"dx":-72,"dy":-123,"t":8961},{"dx":-42,"dy":-153,"t":8996},{"dx":-56,"dy":-97,"t":9051},{"dx":-54,"dy":-82,"t":9085},{"dx":-4,"dy":-61,"t":9142},{"dx":27,"dy":-66,"t":9183},{"dx":64,"dy":-40,"t":9216}],[{"dx":-39,"dy":-97,"t":10231},{"dx":-68,"dy":-101,"t":10265},{"dx":-52,"dy":-128,"t":10320},{"dx":-58,"dy":-145,"t":10355},{"dx":-255,"dy":-147,"t":10410},{"dx":-371,"dy":-158,"t":10445},{"dx":-590,"dy":-159,"t":10499},{"dx":-677,"dy":-152,"t":10531},{"dx":-691,"dy":-72,"t":10587},{"dx":-713,"dy":-70,"t":10621},{"dx":-723,"dy":-77,"t":10676},{"dx":-732,"dy":-88,"t":10711},{"dx":-734,"dy":-84,"t":10766},{"dx":-746,"dy":-88,"t":10800},{"dx":-607,"dy":-101,"t":10855},{"dx":-530,"dy":-130,"t":10887},{"dx":-380,"dy":-209,"t":10946},{"dx":-314,"dy":-273,"t":10980},{"dx":-237,"dy":-266,"t":11037},{"dx":-234,"dy":-279,"t":11072},{"dx":-214,"dy":-219,"t":11127},{"dx":-181,"dy":-197,"t":11161},{"dx":-155,"dy":-114,"t":11218},{"dx":-150,"dy":-88,"t":11253},{"dx":-111,"dy":-141,"t":11307},{"dx":-92,"dy":-176,"t":11342},{"dx":-53,"dy":-175,"t":11398},{"dx":-17,"dy":-194,"t":11433},{"dx":-17,"dy":-201,"t":11487},{"dx":-19,"dy":-217,"t":11521},{"dx":-86,"dy":-193,"t":11576},{"dx":-111,"dy":-186,"t":11613},{"dx":-228,"dy":-155,"t":11672},{"dx":-250,"dy":-155,"t":11707},{"dx":-206,"dy":-156,"t":11763},{"dx":-191,"dy":-145,"t":11794},{"dx":-139,"dy":-131,"t":11857},{"dx":-107,"dy":-126,"t":11897},{"dx":-120,"dy":-75,"t":11954},{"dx":-122,"dy":-39,"t":11989},{"dx":-73,"dy":-79,"t":12043},{"dx":-61,"dy":-116,"t":12079},{"dx":-116,"dy":-138,"t":12135},{"dx":-161,"dy":-131,"t":12171},{"dx":-170,"dy":-94,"t":12227},{"dx":-181,"dy":-67,"t":12245}],[{"dx":-76,"dy":116,"t":13256},{"dx":-126,"dy":266,"t":13356},{"dx":-112,"dy":358,"t":13397},{"dx":-208,"dy":425,"t":13467},{"dx":-281,"dy":415,"t":13503},{"dx":-385,"dy":366,"t":13560},{"dx":-432,"dy":282,"t":13597},{"dx":-458,"dy":140,"t":13657},{"dx":-412,"dy":61,"t":13691},{"dx":-271,"dy":-23,"t":13746},{"dx":-215,"dy":-31,"t":13780},{"dx":-61,"dy":4,"t":13836},{"dx":-22,"dy":27,"t":13873},{"dx":-84,"dy":154,"t":13930},{"dx":-142,"dy":248,"t":13967},{"dx":-150,"dy":422,"t":14021},{"dx":-164,"dy":445,"t":14056},{"dx":-141,"dy":503,"t":14110},{"dx":-118,"dy":540,"t":14145},{"dx":-89,"dy":524,"t":14201},{"dx":-66,"dy":492,"t":14233},{"dx":-49,"dy":384,"t":14288},{"dx":-51,"dy":331,"t":14322},{"dx":14,"dy":279,"t":14378},{"dx":44,"dy":233,"t":14416},{"dx":43,"dy":215,"t":14474},{"dx":16,"dy":225,"t":14510},{"dx":18,"dy":205,"t":14567},{"dx":37,"dy":200,"t":14603},{"dx":31,"dy":167,"t":14660},{"dx":2,"dy":138,"t":14694},{"dx":12,"dy":121,"t":14749},{"dx":5,"dy":110,"t":14783},{"dx":-27,"dy":106,"t":14840},{"dx":50,"dy":97,"t":14875},{"dx":53,"dy":88,"t":14941},{"dx":3,"dy":110,"t":15035},{"dx":-34,"dy":90,"t":15093},{"dx":-45,"dy":88,"t":15131},{"dx":-46,"dy":133,"t":15186},{"dx":-78,"dy":161,"t":15229},{"dx":-37,"dy":209,"t":15263}],[{"dx":212,"dy":129,"t":16248},{"dx":246,"dy":108,"t":16332},{"dx":196,"dy":141,"t":16367},{"dx":178,"dy":127,"t":16423},{"dx":174,"dy":138,"t":16456},{"dx":166,"dy":151,"t":16510},{"dx":146,"dy":139,"t":16546},{"dx":289,"dy":117,"t":16603},{"dx":362,"dy":114,"t":16642},{"dx":400,"dy":165,"t":16699},{"dx":466,"dy":217,"t":16733},{"dx":344,"dy":194,"t":16789},{"dx":290,"dy":162,"t":16822},{"dx":172,"dy":122,"t":16876},{"dx":116,"dy":96,"t":16911},{"dx":50,"dy":68,"t":16967},{"dx":19,"dy":67,"t":17001},{"dx":37,"dy":50,"t":17057},{"dx":36,"dy":27,"t":17088},{"dx":19,"dy":24,"t":17144},{"dx":-14,"dy":29,"t":17177},{"dx":43,"dy":49,"t":17235},{"dx":38,"dy":67,"t":17273},{"dx":37,"dy":52,"t":17329},{"dx":9,"dy":30,"t":17363},{"dx":23,"dy":-2,"t":17419},{"dx":38,"dy":-10,"t":17453},{"dx":14,"dy":-14,"t":17510},{"dx":-21,"dy":-16,"t":17545},{"dx":-80,"dy":5,"t":17602},{"dx":-104,"dy":17,"t":17638},{"dx":-83,"dy":44,"t":17694},{"dx":-89,"dy":44,"t":17728},{"dx":-16,"dy":53,"t":17786},{"dx":23,"dy":51,"t":17821},{"dx":97,"dy":53,"t":17876},{"dx":86,"dy":36,"t":17912},{"dx":53,"dy":21,"t":17973},{"dx":46,"dy":21,"t":18008},{"dx":58,"dy":20,"t":18064},{"dx":53,"dy":9,"t":18100},{"dx":85,"dy":13,"t":18160},{"dx":116,"dy":30,"t":18195},{"dx":171,"dy":52,"t":18251},{"dx":194,"dy":58,"t":18267}],[{"dx":116,"dy":382.5,"t":19276},{"dx":63,"dy":379.5,"t":19333},{"dx":16,"dy":375.5,"t":19368},{"dx":15,"dy":399.5,"t":19423},{"dx":17,"dy":427.5,"t":19456},{"dx":-53,"dy":401.5,"t":19514},{"dx":-96,"dy":366.5,"t":19550},{"dx":-111,"dy":310.5,"t":19607},{"dx":-103,"dy":270.5,"t":19645},{"dx":-153,"dy":225.5,"t":19703},{"dx":-158,"dy":207.5,"t":19739},{"dx":-106,"dy":189.5,"t":19796},{"dx":-60,"dy":197.5,"t":19831},{"dx":39,"dy":214.5,"t":19887},{"dx":78,"dy":233.5,"t":19920},{"dx":101,"dy":292.5,"t":19975},{"dx":117,"dy":336.5,"t":20011},{"dx":94,"dy":367.5,"t":20071},{"dx":88,"dy":371.5,"t":20106},{"dx":28,"dy":352.5,"t":20160},{"dx":24,"dy":339.5,"t":20193},{"dx":112,"dy":279.5,"t":20249},{"dx":134,"dy":223.5,"t":20284},{"dx":115,"dy":120.5,"t":20339},{"dx":121,"dy":69.5,"t":20372},{"dx":69,"dy":1.5,"t":20426},{"dx":83,"dy":-31.5,"t":20461},{"dx":70,"dy":22.5,"t":20515},{"dx":67,"dy":45.5,"t":20550},{"dx":85,"dy":92.5,"t":20607},{"dx":88,"dy":100.5,"t":20640},{"dx":67,"dy":90.5,"t":20695},{"dx":64,"dy":82.5,"t":20728},{"dx":80,"dy":96.5,"t":20790},{"dx":92,"dy":97.5,"t":20883},{"dx":74,"dy":91.5,"t":20940},{"dx":66,"dy":100.5,"t":20977},{"dx":103,"dy":105.5,"t":21032},{"dx":111,"dy":104.5,"t":21067},{"dx":107,"dy":178.5,"t":21122},{"dx":104,"dy":232.5,"t":21158},{"dx":163,"dy":293.5,"t":21213},{"dx":199,"dy":313.5,"t":21254},{"dx":158,"dy":306.5,"t":21287}],[{"dx":52,"dy":404.5,"t":22311},{"dx":-15,"dy":441.5,"t":22347},{"dx":-55,"dy":402.5,"t":22405},{"dx":-39,"dy":342.5,"t":22439},{"dx":-56,"dy":293.5,"t":22496},{"dx":-79,"dy":257.5,"t":22531},{"dx":-131,"dy":159.5,"t":22588},{"dx":-147,"dy":104.5,"t":22623},{"dx":-145,"dy":37.5,"t":22677},{"dx":-122,"dy":24.5,"t":22713},{"dx":-20,"dy":163.5,"t":22769},{"dx":53,"dy":213.5,"t":22805},{"dx":216,"dy":345.5,"t":22861},{"dx":249,"dy":415.5,"t":22893},{"dx":213,"dy":511.5,"t":22949},{"dx":143,"dy":532.5,"t":22982},{"dx":52,"dy":519.5,"t":23038},{"dx":-15,"dy":449.5,"t":23071},{"dx":-31,"dy":375.5,"t":23124},{"dx":-46,"dy":320.5,"t":23160},{"dx":-25,"dy":260.5,"t":23214},{"dx":-32,"dy":211.5,"t":23249},{"dx":-39,"dy":163.5,"t":23305},{"dx":-45,"dy":144.5,"t":23339},{"dx":-26,"dy":107.5,"t":23394},{"dx":9,"dy":87.5,"t":23426},{"dx":-34,"dy":46.5,"t":23479},{"dx":-39,"dy":55.5,"t":23513},{"dx":5,"dy":70.5,"t":23570},{"dx":-14,"dy":42.5,"t":23604},{"dx":-10,"dy":47.5,"t":23660},{"dx":-23,"dy":63.5,"t":23696},{"dx":-20,"dy":91.5,"t":23752},{"dx":-22,"dy":76.5,"t":23787},{"dx":-9,"dy":70.5,"t":23847},{"dx":9,"dy":67.5,"t":23882},{"dx":37,"dy":46.5,"t":23937},{"dx":40,"dy":34.5,"t":23972},{"dx":47,"dy":101.5,"t":24028},{"dx":69,"dy":135.5,"t":24062},{"dx":44,"dy":163.5,"t":24119},{"dx":-18,"dy":189.5,"t":24155},{"dx":-54,"dy":127.5,"t":24212},{"dx":-101,"dy":96.5,"t":24247},{"dx":-96,"dy":119.5,"t":24304},{"dx":-73,"dy":147.5,"t":24318}],[{"dx":-117,"dy":56,"t":25343},{"dx":-25,"dy":128,"t":25378},{"dx":103,"dy":210,"t":25434},{"dx":230,"dy":253,"t":25469},{"dx":261,"dy":374,"t":25524},{"dx":210,"dy":411,"t":25556},{"dx":129,"dy":365,"t":25611},{"dx":56,"dy":324,"t":25647},{"dx":100,"dy":227,"t":25704},{"dx":119,"dy":184,"t":25742},{"dx":99,"dy":123,"t":25801},{"dx":59,"dy":111,"t":25839},{"dx":-74,"dy":75,"t":25897},{"dx":-129,"dy":64,"t":25932},{"dx":-180,"dy":65,"t":25986},{"dx":-184,"dy":74,"t":26024},{"dx":39,"dy":201,"t":26081},{"dx":154,"dy":284,"t":26118},{"dx":189,"dy":511,"t":26173},{"dx":138,"dy":593,"t":26210},{"dx":108,"dy":551,"t":26266},{"dx":54,"dy":478,"t":26302},{"dx":93,"dy":360,"t":26358},{"dx":70,"dy":315,"t":26394},{"dx":7,"dy":236,"t":26448},{"dx":-14,"dy":190,"t":26481},{"dx":-31,"dy":108,"t":26536},{"dx":-41,"dy":80,"t":26573},{"dx":-30,"dy":35,"t":26629},{"dx":-23,"dy":25,"t":26663},{"dx":-33,"dy":20,"t":26717},{"dx":-14,"dy":2,"t":26815},{"dx":-1,"dy":-13,"t":26871},{"dx":-4,"dy":-11,"t":26906},{"dx":-24,"dy":-14,"t":26963},{"dx":-45,"dy":5,"t":26999},{"dx":-14,"dy":27,"t":27054},{"dx":-12,"dy":56,"t":27087},{"dx":6,"dy":78,"t":27142},{"dx":-7,"dy":96,"t":27176},{"dx":0,"dy":105,"t":27231},{"dx":20,"dy":93,"t":27264},{"dx":-54,"dy":122,"t":27319},{"dx":-93,"dy":120,"t":27335}],[{"dx":-71,"dy":105,"t":28328},{"dx":2,"dy":248,"t":28411},{"dx":96,"dy":364,"t":28449},{"dx":298,"dy":524,"t":28507},{"dx":388,"dy":581,"t":28544},{"dx":414,"dy":538,"t":28598},{"dx":402,"dy":466,"t":28632},{"dx":338,"dy":336,"t":28686},{"dx":254,"dy":263,"t":28720},{"dx":118,"dy":169,"t":28775},{"dx":33,"dy":124,"t":28811},{"dx":-79,"dy":46,"t":28869},{"dx":-111,"dy":13,"t":28902},{"dx":-146,"dy":-30,"t":28956},{"dx":-128,"dy":-30,"t":28988},{"dx":57,"dy":102,"t":29045},{"dx":213,"dy":228,"t":29078},{"dx":463,"dy":400,"t":29135},{"dx":621,"dy":469,"t":29169},{"dx":641,"dy":547,"t":29224},{"dx":562,"dy":572,"t":29257},{"dx":373,"dy":490,"t":29311},{"dx":283,"dy":441,"t":29348},{"dx":120,"dy":326,"t":29405},{"dx":49,"dy":266,"t":29444},{"dx":-70,"dy":202,"t":29499},{"dx":-102,"dy":176,"t":29535},{"dx":-171,"dy":131,"t":29591},{"dx":-202,"dy":97,"t":29625},{"dx":-193,"dy":-2,"t":29683},{"dx":-190,"dy":-42,"t":29714},{"dx":-117,"dy":-84,"t":29769},{"dx":-73,"dy":-119,"t":29805},{"dx":-87,"dy":-99,"t":29859},{"dx":-145,"dy":-36,"t":29891},{"dx":31,"dy":155,"t":29945},{"dx":266,"dy":297,"t":29982},{"dx":364,"dy":460,"t":30039},{"dx":371,"dy":488,"t":30077},{"dx":329,"dy":452,"t":30138},{"dx":270,"dy":398,"t":30173},{"dx":137,"dy":248,"t":30231},{"dx":75,"dy":201,"t":30269},{"dx":-25,"dy":124,"t":30326},{"dx":-62,"dy":96,"t":30345}],[{"dx":295,"dy":205.5,"t":31367},{"dx":382,"dy":238.5,"t":31403},{"dx":398,"dy":313.5,"t":31459},{"dx":335,"dy":352.5,"t":31493},{"dx":201,"dy":367.5,"t":31548},{"dx":145,"dy":382.5,"t":31584},{"dx":58,"dy":285.5,"t":31638},{"dx":42,"dy":218.5,"t":31674},{"dx":19,"dy":122.5,"t":31729},{"dx":9,"dy":104.5,"t":31763},{"dx":-43,"dy":72.5,"t":31820},{"dx":-88,"dy":73.5,"t":31853},{"dx":-104,"dy":84.5,"t":31908},{"dx":-110,"dy":93.5,"t":31943},{"dx":-103,"dy":122.5,"t":31998},{"dx":-95,"dy":134.5,"t":32032},{"dx":-69,"dy":167.5,"t":32087},{"dx":-52,"dy":186.5,"t":32119},{"dx":-29,"dy":96.5,"t":32174},{"dx":-39,"dy":52.5,"t":32211},{"dx":-21,"dy":77.5,"t":32270},{"dx":-50,"dy":117.5,"t":32306},{"dx":131,"dy":137.5,"t":32361},{"dx":229,"dy":119.5,"t":32396},{"dx":243,"dy":192.5,"t":32452},{"dx":178,"dy":224.5,"t":32487},{"dx":126,"dy":275.5,"t":32543},{"dx":128,"dy":292.5,"t":32581},{"dx":89,"dy":268.5,"t":32638},{"dx":56,"dy":236.5,"t":32675},{"dx":11,"dy":164.5,"t":32730},{"dx":-3,"dy":128.5,"t":32769},{"dx":-61,"dy":140.5,"t":32829},{"dx":-61,"dy":145.5,"t":32865},{"dx":-120,"dy":168.5,"t":32930},{"dx":-157,"dy":168.5,"t":33022},{"dx":-129,"dy":160.5,"t":33082},{"dx":-114,"dy":155.5,"t":33117},{"dx":-127,"dy":135.5,"t":33172},{"dx":-140,"dy":98.5,"t":33206},{"dx":-131,"dy":89.5,"t":33261},{"dx":-126,"dy":92.5,"t":33297},{"dx":-123,"dy":36.5,"t":33355},{"dx":-120,"dy":7.5,"t":33372}],[{"dx":78,"dy":201,"t":34394},{"dx":64,"dy":161,"t":34429},{"dx":102,"dy":198,"t":34483},{"dx":105,"dy":215,"t":34516},{"dx":89,"dy":123,"t":34572},{"dx":80,"dy":61,"t":34607},{"dx":80,"dy":73,"t":34662},{"dx":101,"dy":109,"t":34695},{"dx":149,"dy":193,"t":34751},{"dx":234,"dy":221,"t":34786},{"dx":326,"dy":259,"t":34840},{"dx":303,"dy":266,"t":34874},{"dx":268,"dy":309,"t":34933},{"dx":204,"dy":304,"t":34965},{"dx":83,"dy":291,"t":35019},{"dx":3,"dy":288,"t":35053},{"dx":-51,"dy":285,"t":35108},{"dx":-43,"dy":233,"t":35144},{"dx":-12,"dy":181,"t":35200},{"dx":-1,"dy":179,"t":35235},{"dx":33,"dy":185,"t":35290},{"dx":44,"dy":188,"t":35323},{"dx":59,"dy":175,"t":35378},{"dx":86,"dy":186,"t":35415},{"dx":46,"dy":216,"t":35469},{"dx":69,"dy":235,"t":35504},{"dx":86,"dy":224,"t":35559},{"dx":116,"dy":192,"t":35592},{"dx":111,"dy":191,"t":35676},{"dx":151,"dy":193,"t":35722},{"dx":150,"dy":192,"t":35779},{"dx":181,"dy":195,"t":35816},{"dx":-2,"dy":238,"t":35871},{"dx":-31,"dy":267,"t":35908},{"dx":-125,"dy":301,"t":35965},{"dx":-148,"dy":331,"t":36001},{"dx":-227,"dy":352,"t":36056},{"dx":-253,"dy":362,"t":36093},{"dx":-261,"dy":237,"t":36148},{"dx":-263,"dy":233,"t":36184},{"dx":-221,"dy":197,"t":36238},{"dx":-209,"dy":187,"t":36273},{"dx":-177,"dy":186,"t":36328},{"dx":-150,"dy":204,"t":36371},{"dx":-120,"dy":180,"t":36405}],[{"dx":-108,"dy":174.5,"t":37396},{"dx":-79,"dy":211.5,"t":37487},{"dx":-52,"dy":211.5,"t":37524},{"dx":-33,"dy":211.5,"t":37578},{"dx":-69,"dy":227.5,"t":37612},{"dx":-151,"dy":197.5,"t":37668},{"dx":-152,"dy":193.5,"t":37703},{"dx":-243,"dy":175.5,"t":37764},{"dx":-282,"dy":166.5,"t":37799},{"dx":-237,"dy":103.5,"t":37856},{"dx":-146,"dy":68.5,"t":37889},{"dx":-23,"dy":93.5,"t":37943},{"dx":8,"dy":100.5,"t":37976},{"dx":-33,"dy":88.5,"t":38031},{"dx":-87,"dy":81.5,"t":38067},{"dx":-77,"dy":127.5,"t":38121},{"dx":-77,"dy":147.5,"t":38157},{"dx":-126,"dy":192.5,"t":38213},{"dx":-182,"dy":188.5,"t":38249},{"dx":-151,"dy":193.5,"t":38304},{"dx":-152,"dy":209.5,"t":38340},{"dx":-158,"dy":212.5,"t":38397},{"dx":-164,"dy":225.5,"t":38432},{"dx":-132,"dy":234.5,"t":38486},{"dx":-76,"dy":248.5,"t":38521},{"dx":-97,"dy":177.5,"t":38577},{"dx":-89,"dy":158.5,"t":38612},{"dx":-111,"dy":195.5,"t":38669},{"dx":-122,"dy":214.5,"t":38707},{"dx":-93,"dy":147.5,"t":38765},{"dx":-72,"dy":105.5,"t":38801},{"dx":-126,"dy":148.5,"t":38857},{"dx":-144,"dy":172.5,"t":38892},{"dx":-124,"dy":168.5,"t":38957},{"dx":-112,"dy":170.5,"t":39046},{"dx":-153,"dy":189.5,"t":39104},{"dx":-141,"dy":207.5,"t":39140},{"dx":-187,"dy":206.5,"t":39198},{"dx":-186,"dy":218.5,"t":39235},{"dx":-127,"dy":204.5,"t":39289},{"dx":-86,"dy":181.5,"t":39329}]],"percent_in_roi":[58.69565217391305,0,50,15.217391304347828,30.952380952380953,62.22222222222222,31.818181818181817,41.30434782608695,50,28.888888888888886,29.545454545454547,6.666666666666667,14.634146341463413],"average_offset":[{"x":25.891304347826086,"y":102.28260869565217,"r":155.0601976665131},{"x":285.2173913043478,"y":-0.5652173913043478,"r":125.22294223633256},{"x":-115.1590909090909,"y":-20.181818181818183,"r":201.37956504310395},{"x":-262.6521739130435,"y":-142,"r":244.9093536706984},{"x":-96.47619047619048,"y":224.38095238095238,"r":225.6422700842035},{"x":104.33333333333333,"y":68.17777777777778,"r":96.09086234996798},{"x":52,"y":219.52272727272728,"r":203.6841540771013},{"x":-7.456521739130435,"y":197.47826086956522,"r":194.757085396093},{"x":24.886363636363637,"y":174.9318181818182,"r":228.7593098347691},{"x":124.35555555555555,"y":237.8,"r":296.2448120085402},{"x":19.545454545454547,"y":166.11363636363637,"r":210.5294229880139},{"x":24.6,"y":217.7111111111111,"r":126.8305917842603},{"x":-120.78048780487805,"y":174.4512195121951,"r":53.22595029355506}],"samples_per_sec":"21.58","clicks":15,"pattern":"spread","trial_type":"webgazer-validate","trial_index":19,"time_elapsed":225848,"internal_node_id":"0.0-10.0-3.1","validation_points":[[75,25],[15,85],[75,75],[85,85],[85,15],[25,75],[62.5,37.5],[37.5,37.5],[25,25],[15,15],[37.5,62.5],[50,50],[62.5,62.5]],"user_agent":"Mozilla/5.0 (Macintosh; Intel Mac OS X 10_13_6) AppleWebKit/537.36 (KHTML, like Gecko) Chrome/88.0.4324.192 Safari/537.36","screen_width_px":1440,"screen_height_px":900},{"rt":1275.7150000034017,"stimulus":"\n      <p>Round complete.</p>\n      <p>You can move a little bit, but please try to return you head to the same general location before continuing.</p>\n    ","response":0,"trial_type":"html-button-response","trial_index":20,"time_elapsed":227126,"internal_node_id":"0.0-10.0-4.1","user_agent":"Mozilla/5.0 (Macintosh; Intel Mac OS X 10_13_6) AppleWebKit/537.36 (KHTML, like Gecko) Chrome/88.0.4324.192 Safari/537.36","screen_width_px":1440,"screen_height_px":900},{"trial_type":"webgazer-init-camera","trial_index":21,"time_elapsed":232420,"internal_node_id":"0.0-10.0-5.1","user_agent":"Mozilla/5.0 (Macintosh; Intel Mac OS X 10_13_6) AppleWebKit/537.36 (KHTML, like Gecko) Chrome/88.0.4324.192 Safari/537.36","screen_width_px":1440,"screen_height_px":900},{"rt":1028.1099999992875,"stimulus":"\n      <p>Calibration phase next.</p>\n      <p>Click on the dots.</p>\n    ","response":0,"trial_type":"html-button-response","trial_index":22,"time_elapsed":233450,"internal_node_id":"0.0-10.0-0.2","user_agent":"Mozilla/5.0 (Macintosh; Intel Mac OS X 10_13_6) AppleWebKit/537.36 (KHTML, like Gecko) Chrome/88.0.4324.192 Safari/537.36","screen_width_px":1440,"screen_height_px":900},{"trial_type":"webgazer-calibrate","trial_index":23,"time_elapsed":250233,"internal_node_id":"0.0-10.0-1.2","user_agent":"Mozilla/5.0 (Macintosh; Intel Mac OS X 10_13_6) AppleWebKit/537.36 (KHTML, like Gecko) Chrome/88.0.4324.192 Safari/537.36","screen_width_px":1440,"screen_height_px":900},{"rt":729.4949999995879,"stimulus":"\n      <p>Validation phase next.</p>\n      <p>Look at the dots.</p>\n    ","response":0,"trial_type":"html-button-response","trial_index":24,"time_elapsed":250963,"internal_node_id":"0.0-10.0-2.2","user_agent":"Mozilla/5.0 (Macintosh; Intel Mac OS X 10_13_6) AppleWebKit/537.36 (KHTML, like Gecko) Chrome/88.0.4324.192 Safari/537.36","screen_width_px":1440,"screen_height_px":900},{"raw_gaze":[[{"dx":232,"dy":360.5,"t":1073},{"dx":147,"dy":360.5,"t":1128},{"dx":133,"dy":338.5,"t":1159},{"dx":14,"dy":284.5,"t":1214},{"dx":-46,"dy":257.5,"t":1251},{"dx":-80,"dy":202.5,"t":1307},{"dx":-78,"dy":153.5,"t":1343},{"dx":-60,"dy":113.5,"t":1401},{"dx":-60,"dy":82.5,"t":1440},{"dx":-85,"dy":60.5,"t":1495},{"dx":-80,"dy":49.5,"t":1530},{"dx":-108,"dy":40.5,"t":1586},{"dx":-125,"dy":25.5,"t":1621},{"dx":-124,"dy":-9.5,"t":1676},{"dx":-140,"dy":-21.5,"t":1710},{"dx":-146,"dy":-38.5,"t":1766},{"dx":-140,"dy":-45.5,"t":1799},{"dx":-123,"dy":-60.5,"t":1855},{"dx":-95,"dy":-72.5,"t":1888},{"dx":-83,"dy":-32.5,"t":1942},{"dx":-68,"dy":-41.5,"t":1977},{"dx":-68,"dy":-47.5,"t":2034},{"dx":-62,"dy":-67.5,"t":2068},{"dx":-78,"dy":-57.5,"t":2127},{"dx":-91,"dy":-40.5,"t":2163},{"dx":-119,"dy":1.5,"t":2218},{"dx":-131,"dy":15.5,"t":2254},{"dx":-175,"dy":37.5,"t":2308},{"dx":-175,"dy":65.5,"t":2343},{"dx":-177,"dy":88.5,"t":2400},{"dx":-169,"dy":104.5,"t":2436},{"dx":-130,"dy":88.5,"t":2493},{"dx":-100,"dy":106.5,"t":2527},{"dx":-66,"dy":131.5,"t":2582},{"dx":-37,"dy":124.5,"t":2618},{"dx":-107,"dy":120.5,"t":2673},{"dx":-109,"dy":139.5,"t":2708},{"dx":-42,"dy":124.5,"t":2763},{"dx":-28,"dy":107.5,"t":2798},{"dx":-29,"dy":78.5,"t":2854},{"dx":-36,"dy":67.5,"t":2890},{"dx":-57,"dy":28.5,"t":2948},{"dx":-69,"dy":4.5,"t":2984},{"dx":-31,"dy":51.5,"t":3041},{"dx":20,"dy":77.5,"t":3080},{"dx":98,"dy":113.5,"t":3115}],[{"dx":258,"dy":246.5,"t":4132},{"dx":253,"dy":263.5,"t":4166},{"dx":283,"dy":266.5,"t":4222},{"dx":286,"dy":284.5,"t":4254},{"dx":269,"dy":251.5,"t":4307},{"dx":272,"dy":237.5,"t":4342},{"dx":320,"dy":216.5,"t":4398},{"dx":314,"dy":215.5,"t":4431},{"dx":319,"dy":191.5,"t":4494},{"dx":324,"dy":184.5,"t":4579},{"dx":200,"dy":135.5,"t":4636},{"dx":137,"dy":111.5,"t":4672},{"dx":160,"dy":119.5,"t":4729},{"dx":197,"dy":124.5,"t":4764},{"dx":281,"dy":130.5,"t":4818},{"dx":293,"dy":146.5,"t":4853},{"dx":322,"dy":153.5,"t":4909},{"dx":298,"dy":144.5,"t":4944},{"dx":321,"dy":162.5,"t":4999},{"dx":330,"dy":180.5,"t":5033},{"dx":277,"dy":161.5,"t":5088},{"dx":245,"dy":165.5,"t":5120},{"dx":218,"dy":148.5,"t":5176},{"dx":221,"dy":151.5,"t":5210},{"dx":156,"dy":61.5,"t":5266},{"dx":139,"dy":22.5,"t":5302},{"dx":182,"dy":-29.5,"t":5358},{"dx":190,"dy":-58.5,"t":5395},{"dx":141,"dy":8.5,"t":5451},{"dx":137,"dy":32.5,"t":5490},{"dx":140,"dy":52.5,"t":5545},{"dx":137,"dy":45.5,"t":5579},{"dx":109,"dy":55.5,"t":5636},{"dx":109,"dy":38.5,"t":5670},{"dx":95,"dy":50.5,"t":5725},{"dx":97,"dy":65.5,"t":5758},{"dx":51,"dy":93.5,"t":5811},{"dx":33,"dy":103.5,"t":5847},{"dx":-24,"dy":75.5,"t":5906},{"dx":-61,"dy":66.5,"t":5940},{"dx":-66,"dy":36.5,"t":5997},{"dx":-67,"dy":28.5,"t":6033},{"dx":1,"dy":11.5,"t":6088},{"dx":72,"dy":8.5,"t":6123},{"dx":138,"dy":18.5,"t":6158}],[{"dx":-66,"dy":-32,"t":7184},{"dx":-56,"dy":-42,"t":7217},{"dx":-76,"dy":-38,"t":7273},{"dx":-95,"dy":-25,"t":7309},{"dx":-140,"dy":-20,"t":7365},{"dx":-152,"dy":-21,"t":7403},{"dx":-98,"dy":-28,"t":7458},{"dx":-62,"dy":-29,"t":7494},{"dx":-93,"dy":-30,"t":7549},{"dx":-97,"dy":-52,"t":7584},{"dx":-105,"dy":-15,"t":7638},{"dx":-126,"dy":-32,"t":7673},{"dx":-169,"dy":-35,"t":7730},{"dx":-171,"dy":-38,"t":7763},{"dx":-184,"dy":-28,"t":7817},{"dx":-191,"dy":-34,"t":7850},{"dx":-190,"dy":-55,"t":7906},{"dx":-205,"dy":-67,"t":7944},{"dx":-191,"dy":-94,"t":8005},{"dx":-189,"dy":-114,"t":8043},{"dx":-180,"dy":-127,"t":8101},{"dx":-188,"dy":-119,"t":8137},{"dx":-210,"dy":-141,"t":8193},{"dx":-209,"dy":-153,"t":8229},{"dx":-254,"dy":-124,"t":8282},{"dx":-261,"dy":-115,"t":8315},{"dx":-241,"dy":-94,"t":8371},{"dx":-215,"dy":-68,"t":8407},{"dx":-173,"dy":-46,"t":8463},{"dx":-173,"dy":-43,"t":8499},{"dx":-176,"dy":-62,"t":8556},{"dx":-172,"dy":-79,"t":8589},{"dx":-189,"dy":-87,"t":8643},{"dx":-190,"dy":-92,"t":8676},{"dx":-218,"dy":-85,"t":8733},{"dx":-230,"dy":-84,"t":8765},{"dx":-262,"dy":-66,"t":8822},{"dx":-278,"dy":-66,"t":8855},{"dx":-245,"dy":-105,"t":8914},{"dx":-225,"dy":-131,"t":8953},{"dx":-199,"dy":-125,"t":9011},{"dx":-186,"dy":-120,"t":9045},{"dx":-160,"dy":-100,"t":9102},{"dx":-155,"dy":-87,"t":9142},{"dx":-171,"dy":-92,"t":9176}],[{"dx":42,"dy":16.5,"t":10168},{"dx":66,"dy":194.5,"t":10255},{"dx":34,"dy":256.5,"t":10295},{"dx":-6,"dy":351.5,"t":10353},{"dx":4,"dy":379.5,"t":10397},{"dx":-33,"dy":378.5,"t":10455},{"dx":-37,"dy":351.5,"t":10493},{"dx":-52,"dy":259.5,"t":10548},{"dx":-61,"dy":251.5,"t":10581},{"dx":-98,"dy":199.5,"t":10639},{"dx":-122,"dy":161.5,"t":10673},{"dx":-66,"dy":85.5,"t":10728},{"dx":-33,"dy":60.5,"t":10761},{"dx":-46,"dy":-37.5,"t":10815},{"dx":-21,"dy":-59.5,"t":10851},{"dx":-19,"dy":-17.5,"t":10907},{"dx":-14,"dy":29.5,"t":10942},{"dx":-14,"dy":164.5,"t":10998},{"dx":-2,"dy":244.5,"t":11033},{"dx":44,"dy":315.5,"t":11091},{"dx":44,"dy":349.5,"t":11127},{"dx":4,"dy":370.5,"t":11184},{"dx":-11,"dy":375.5,"t":11219},{"dx":-7,"dy":342.5,"t":11275},{"dx":-37,"dy":305.5,"t":11310},{"dx":-44,"dy":256.5,"t":11368},{"dx":-69,"dy":232.5,"t":11401},{"dx":67,"dy":130.5,"t":11458},{"dx":98,"dy":104.5,"t":11493},{"dx":67,"dy":48.5,"t":11550},{"dx":47,"dy":25.5,"t":11597},{"dx":-12,"dy":24.5,"t":11714},{"dx":-25,"dy":30.5,"t":11750},{"dx":-53,"dy":30.5,"t":11805},{"dx":-50,"dy":27.5,"t":11839},{"dx":-12,"dy":10.5,"t":11895},{"dx":39,"dy":7.5,"t":11929},{"dx":65,"dy":41.5,"t":11986},{"dx":68,"dy":62.5,"t":12019},{"dx":82,"dy":104.5,"t":12073},{"dx":75,"dy":94.5,"t":12109},{"dx":42,"dy":99.5,"t":12165},{"dx":-9,"dy":102.5,"t":12182}],[{"dx":-16,"dy":-18,"t":13203},{"dx":12,"dy":-6,"t":13260},{"dx":24,"dy":-2,"t":13295},{"dx":-42,"dy":-11,"t":13350},{"dx":-60,"dy":-8,"t":13384},{"dx":-78,"dy":-6,"t":13440},{"dx":-101,"dy":-18,"t":13476},{"dx":-147,"dy":-4,"t":13533},{"dx":-156,"dy":-3,"t":13568},{"dx":-142,"dy":-20,"t":13624},{"dx":-148,"dy":-23,"t":13657},{"dx":-142,"dy":-34,"t":13711},{"dx":-140,"dy":-38,"t":13747},{"dx":-109,"dy":-36,"t":13802},{"dx":-84,"dy":-33,"t":13836},{"dx":-113,"dy":-23,"t":13891},{"dx":-128,"dy":-9,"t":13924},{"dx":-142,"dy":9,"t":13980},{"dx":-143,"dy":-7,"t":14015},{"dx":-113,"dy":-7,"t":14071},{"dx":-100,"dy":5,"t":14107},{"dx":-89,"dy":14,"t":14167},{"dx":-66,"dy":-4,"t":14204},{"dx":-82,"dy":2,"t":14261},{"dx":-86,"dy":13,"t":14294},{"dx":-116,"dy":53,"t":14352},{"dx":-138,"dy":78,"t":14384},{"dx":-123,"dy":57,"t":14440},{"dx":-130,"dy":38,"t":14477},{"dx":-122,"dy":-10,"t":14535},{"dx":-110,"dy":-36,"t":14568},{"dx":-65,"dy":-59,"t":14627},{"dx":-36,"dy":-58,"t":14663},{"dx":-20,"dy":-52,"t":14716},{"dx":-29,"dy":-44,"t":14753},{"dx":-9,"dy":-22,"t":14809},{"dx":-3,"dy":-10,"t":14841},{"dx":-1,"dy":22,"t":14897},{"dx":-25,"dy":30,"t":14933},{"dx":-58,"dy":-3,"t":14989},{"dx":-63,"dy":-26,"t":15026},{"dx":-78,"dy":-56,"t":15081},{"dx":-88,"dy":-63,"t":15119},{"dx":-79,"dy":-61,"t":15177},{"dx":-82,"dy":-61,"t":15189}],[{"dx":275,"dy":279,"t":16213},{"dx":329,"dy":393,"t":16249},{"dx":284,"dy":483,"t":16307},{"dx":245,"dy":473,"t":16339},{"dx":183,"dy":362,"t":16398},{"dx":208,"dy":281,"t":16432},{"dx":148,"dy":134,"t":16488},{"dx":134,"dy":66,"t":16524},{"dx":103,"dy":-32,"t":16581},{"dx":94,"dy":-71,"t":16616},{"dx":229,"dy":26,"t":16671},{"dx":346,"dy":129,"t":16707},{"dx":508,"dy":368,"t":16762},{"dx":588,"dy":460,"t":16795},{"dx":546,"dy":547,"t":16850},{"dx":456,"dy":527,"t":16884},{"dx":310,"dy":478,"t":16938},{"dx":271,"dy":424,"t":16974},{"dx":163,"dy":231,"t":17030},{"dx":109,"dy":146,"t":17063},{"dx":115,"dy":33,"t":17119},{"dx":120,"dy":-5,"t":17152},{"dx":123,"dy":-51,"t":17207},{"dx":128,"dy":-70,"t":17241},{"dx":103,"dy":-67,"t":17299},{"dx":98,"dy":-65,"t":17333},{"dx":117,"dy":-78,"t":17388},{"dx":119,"dy":-80,"t":17423},{"dx":145,"dy":-87,"t":17477},{"dx":160,"dy":-86,"t":17513},{"dx":164,"dy":-88,"t":17569},{"dx":163,"dy":-86,"t":17611},{"dx":145,"dy":-91,"t":17720},{"dx":132,"dy":-84,"t":17752},{"dx":151,"dy":-84,"t":17806},{"dx":159,"dy":-76,"t":17841},{"dx":130,"dy":-5,"t":17896},{"dx":112,"dy":30,"t":17929},{"dx":96,"dy":66,"t":17984},{"dx":99,"dy":90,"t":18017},{"dx":107,"dy":31,"t":18071},{"dx":126,"dy":-3,"t":18108},{"dx":200,"dy":-55,"t":18165},{"dx":248,"dy":-75,"t":18204},{"dx":279,"dy":-100,"t":18236}],[{"dx":26,"dy":110.5,"t":19264},{"dx":10,"dy":160.5,"t":19298},{"dx":23,"dy":184.5,"t":19355},{"dx":63,"dy":186.5,"t":19392},{"dx":75,"dy":209.5,"t":19445},{"dx":45,"dy":207.5,"t":19481},{"dx":32,"dy":167.5,"t":19536},{"dx":31,"dy":136.5,"t":19571},{"dx":25,"dy":88.5,"t":19627},{"dx":0,"dy":73.5,"t":19663},{"dx":-18,"dy":61.5,"t":19717},{"dx":-4,"dy":50.5,"t":19752},{"dx":-59,"dy":20.5,"t":19806},{"dx":-89,"dy":20.5,"t":19841},{"dx":-97,"dy":13.5,"t":19898},{"dx":-80,"dy":12.5,"t":19934},{"dx":-45,"dy":12.5,"t":19989},{"dx":-39,"dy":26.5,"t":20026},{"dx":-35,"dy":44.5,"t":20081},{"dx":-29,"dy":46.5,"t":20118},{"dx":-10,"dy":39.5,"t":20174},{"dx":-10,"dy":23.5,"t":20209},{"dx":1,"dy":44.5,"t":20264},{"dx":26,"dy":63.5,"t":20298},{"dx":22,"dy":67.5,"t":20355},{"dx":2,"dy":56.5,"t":20388},{"dx":-24,"dy":27.5,"t":20445},{"dx":-66,"dy":6.5,"t":20480},{"dx":-88,"dy":39.5,"t":20538},{"dx":-99,"dy":95.5,"t":20573},{"dx":-42,"dy":150.5,"t":20628},{"dx":14,"dy":167.5,"t":20662},{"dx":24,"dy":161.5,"t":20716},{"dx":46,"dy":175.5,"t":20750},{"dx":56,"dy":169.5,"t":20807},{"dx":61,"dy":169.5,"t":20840},{"dx":91,"dy":153.5,"t":20897},{"dx":107,"dy":145.5,"t":20931},{"dx":90,"dy":111.5,"t":20984},{"dx":63,"dy":87.5,"t":21018},{"dx":30,"dy":35.5,"t":21073},{"dx":14,"dy":13.5,"t":21107},{"dx":-14,"dy":12.5,"t":21162},{"dx":-14,"dy":17.5,"t":21196},{"dx":28,"dy":41.5,"t":21259},{"dx":71,"dy":67.5,"t":21274}],[{"dx":-166,"dy":374,"t":22268},{"dx":-118,"dy":240,"t":22354},{"dx":-103,"dy":165,"t":22391},{"dx":-6,"dy":79,"t":22447},{"dx":8,"dy":48,"t":22480},{"dx":-31,"dy":-23,"t":22538},{"dx":-26,"dy":-41,"t":22571},{"dx":-33,"dy":-59,"t":22625},{"dx":-32,"dy":-50,"t":22659},{"dx":0,"dy":-55,"t":22716},{"dx":23,"dy":-60,"t":22751},{"dx":22,"dy":-78,"t":22805},{"dx":18,"dy":-87,"t":22838},{"dx":57,"dy":-74,"t":22894},{"dx":76,"dy":-60,"t":22928},{"dx":67,"dy":-61,"t":22982},{"dx":58,"dy":-55,"t":23018},{"dx":10,"dy":-45,"t":23075},{"dx":-1,"dy":-35,"t":23111},{"dx":-12,"dy":25,"t":23167},{"dx":5,"dy":51,"t":23203},{"dx":-20,"dy":77,"t":23259},{"dx":-51,"dy":118,"t":23295},{"dx":-188,"dy":266,"t":23349},{"dx":-265,"dy":387,"t":23383},{"dx":-276,"dy":527,"t":23438},{"dx":-264,"dy":569,"t":23472},{"dx":-200,"dy":562,"t":23528},{"dx":-168,"dy":528,"t":23560},{"dx":-131,"dy":401,"t":23617},{"dx":-118,"dy":319,"t":23650},{"dx":-35,"dy":235,"t":23704},{"dx":19,"dy":186,"t":23738},{"dx":19,"dy":113,"t":23797},{"dx":10,"dy":87,"t":23894},{"dx":9,"dy":43,"t":23948},{"dx":19,"dy":43,"t":23986},{"dx":29,"dy":13,"t":24044},{"dx":43,"dy":11,"t":24077},{"dx":42,"dy":7,"t":24134},{"dx":36,"dy":1,"t":24169},{"dx":2,"dy":0,"t":24225},{"dx":-26,"dy":5,"t":24267},{"dx":-58,"dy":33,"t":24300}],[{"dx":-51,"dy":21,"t":25308},{"dx":-23,"dy":65,"t":25344},{"dx":24,"dy":211,"t":25400},{"dx":39,"dy":264,"t":25434},{"dx":131,"dy":305,"t":25490},{"dx":159,"dy":283,"t":25523},{"dx":159,"dy":275,"t":25577},{"dx":147,"dy":252,"t":25611},{"dx":127,"dy":209,"t":25669},{"dx":70,"dy":215,"t":25708},{"dx":1,"dy":183,"t":25764},{"dx":-15,"dy":152,"t":25799},{"dx":-40,"dy":98,"t":25854},{"dx":-55,"dy":74,"t":25890},{"dx":-114,"dy":20,"t":25944},{"dx":-158,"dy":1,"t":25980},{"dx":-124,"dy":-43,"t":26037},{"dx":-90,"dy":-55,"t":26072},{"dx":-43,"dy":-44,"t":26131},{"dx":-28,"dy":-26,"t":26164},{"dx":-36,"dy":1,"t":26221},{"dx":-17,"dy":18,"t":26256},{"dx":-3,"dy":99,"t":26311},{"dx":31,"dy":163,"t":26346},{"dx":82,"dy":241,"t":26401},{"dx":99,"dy":267,"t":26436},{"dx":78,"dy":221,"t":26491},{"dx":45,"dy":190,"t":26527},{"dx":21,"dy":205,"t":26584},{"dx":12,"dy":213,"t":26619},{"dx":16,"dy":140,"t":26674},{"dx":6,"dy":108,"t":26710},{"dx":-30,"dy":46,"t":26768},{"dx":-76,"dy":36,"t":26804},{"dx":-141,"dy":19,"t":26861},{"dx":-159,"dy":2,"t":26896},{"dx":-135,"dy":-42,"t":26952},{"dx":-124,"dy":-49,"t":26986},{"dx":-66,"dy":-66,"t":27041},{"dx":-57,"dy":-78,"t":27080},{"dx":-24,"dy":-65,"t":27136},{"dx":2,"dy":-54,"t":27172},{"dx":65,"dy":4,"t":27226},{"dx":81,"dy":23,"t":27267},{"dx":94,"dy":54,"t":27301}],[{"dx":83,"dy":-166,"t":28311},{"dx":10,"dy":6,"t":28368},{"dx":-34,"dy":130,"t":28406},{"dx":-64,"dy":290,"t":28467},{"dx":-116,"dy":356,"t":28501},{"dx":-157,"dy":419,"t":28557},{"dx":-172,"dy":409,"t":28593},{"dx":-174,"dy":367,"t":28649},{"dx":-154,"dy":335,"t":28683},{"dx":-126,"dy":223,"t":28740},{"dx":-84,"dy":167,"t":28775},{"dx":-31,"dy":74,"t":28831},{"dx":-16,"dy":37,"t":28867},{"dx":52,"dy":-40,"t":28924},{"dx":93,"dy":-77,"t":28960},{"dx":131,"dy":-106,"t":29013},{"dx":158,"dy":-96,"t":29050},{"dx":160,"dy":-96,"t":29107},{"dx":173,"dy":-88,"t":29143},{"dx":129,"dy":-84,"t":29199},{"dx":100,"dy":-63,"t":29234},{"dx":42,"dy":-2,"t":29289},{"dx":15,"dy":35,"t":29323},{"dx":-69,"dy":183,"t":29378},{"dx":-142,"dy":282,"t":29410},{"dx":-196,"dy":412,"t":29465},{"dx":-181,"dy":449,"t":29501},{"dx":-167,"dy":479,"t":29557},{"dx":-133,"dy":433,"t":29592},{"dx":-87,"dy":330,"t":29648},{"dx":-48,"dy":248,"t":29681},{"dx":22,"dy":111,"t":29736},{"dx":52,"dy":57,"t":29772},{"dx":133,"dy":6,"t":29838},{"dx":169,"dy":2,"t":29930},{"dx":140,"dy":-36,"t":29988},{"dx":109,"dy":-46,"t":30023},{"dx":114,"dy":-44,"t":30078},{"dx":111,"dy":-26,"t":30113},{"dx":92,"dy":-37,"t":30169},{"dx":86,"dy":-51,"t":30204},{"dx":93,"dy":-51,"t":30263},{"dx":115,"dy":-52,"t":30306},{"dx":88,"dy":-57,"t":30338}],[{"dx":-111,"dy":-52,"t":31360},{"dx":-85,"dy":-36,"t":31397},{"dx":-32,"dy":-17,"t":31451},{"dx":1,"dy":-22,"t":31483},{"dx":153,"dy":14,"t":31539},{"dx":282,"dy":45,"t":31574},{"dx":447,"dy":84,"t":31633},{"dx":490,"dy":104,"t":31666},{"dx":471,"dy":115,"t":31722},{"dx":423,"dy":109,"t":31756},{"dx":405,"dy":92,"t":31812},{"dx":354,"dy":82,"t":31847},{"dx":268,"dy":78,"t":31903},{"dx":223,"dy":76,"t":31937},{"dx":152,"dy":64,"t":31992},{"dx":134,"dy":45,"t":32025},{"dx":119,"dy":35,"t":32079},{"dx":112,"dy":35,"t":32112},{"dx":89,"dy":21,"t":32167},{"dx":110,"dy":19,"t":32203},{"dx":74,"dy":9,"t":32261},{"dx":63,"dy":-4,"t":32297},{"dx":103,"dy":12,"t":32351},{"dx":129,"dy":22,"t":32384},{"dx":167,"dy":31,"t":32440},{"dx":172,"dy":36,"t":32477},{"dx":104,"dy":1,"t":32534},{"dx":68,"dy":-15,"t":32569},{"dx":65,"dy":0,"t":32625},{"dx":49,"dy":9,"t":32664},{"dx":94,"dy":22,"t":32719},{"dx":114,"dy":24,"t":32755},{"dx":145,"dy":21,"t":32810},{"dx":164,"dy":32,"t":32845},{"dx":193,"dy":48,"t":32900},{"dx":203,"dy":61,"t":32937},{"dx":195,"dy":80,"t":32995},{"dx":163,"dy":76,"t":33027},{"dx":221,"dy":60,"t":33082},{"dx":257,"dy":59,"t":33118},{"dx":265,"dy":56,"t":33175},{"dx":257,"dy":65,"t":33214},{"dx":271,"dy":62,"t":33271},{"dx":294,"dy":60,"t":33310},{"dx":285,"dy":76,"t":33343}],[{"dx":424,"dy":57,"t":34369},{"dx":319,"dy":42,"t":34429},{"dx":261,"dy":37,"t":34466},{"dx":215,"dy":34,"t":34524},{"dx":202,"dy":30,"t":34558},{"dx":215,"dy":27,"t":34615},{"dx":240,"dy":38,"t":34653},{"dx":240,"dy":23,"t":34711},{"dx":250,"dy":13,"t":34746},{"dx":302,"dy":-12,"t":34802},{"dx":304,"dy":-17,"t":34838},{"dx":275,"dy":-2,"t":34899},{"dx":284,"dy":-8,"t":34933},{"dx":315,"dy":-22,"t":34988},{"dx":339,"dy":-18,"t":35024},{"dx":446,"dy":-20,"t":35079},{"dx":517,"dy":-8,"t":35111},{"dx":637,"dy":-8,"t":35166},{"dx":703,"dy":-5,"t":35200},{"dx":700,"dy":28,"t":35255},{"dx":659,"dy":53,"t":35291},{"dx":567,"dy":53,"t":35347},{"dx":514,"dy":50,"t":35381},{"dx":406,"dy":68,"t":35439},{"dx":362,"dy":78,"t":35473},{"dx":322,"dy":51,"t":35530},{"dx":301,"dy":38,"t":35563},{"dx":286,"dy":2,"t":35618},{"dx":262,"dy":0,"t":35652},{"dx":223,"dy":14,"t":35707},{"dx":243,"dy":28,"t":35743},{"dx":235,"dy":58,"t":35800},{"dx":212,"dy":65,"t":35834},{"dx":193,"dy":44,"t":35888},{"dx":197,"dy":29,"t":35922},{"dx":182,"dy":-12,"t":35987},{"dx":170,"dy":-21,"t":36077},{"dx":172,"dy":-56,"t":36135},{"dx":156,"dy":-70,"t":36173},{"dx":183,"dy":-60,"t":36229},{"dx":200,"dy":-52,"t":36267},{"dx":203,"dy":-19,"t":36327},{"dx":216,"dy":0,"t":36374},{"dx":254,"dy":6,"t":36409}],[{"dx":83,"dy":-15,"t":37434},{"dx":35,"dy":-77,"t":37473},{"dx":-22,"dy":-128,"t":37529},{"dx":-44,"dy":-128,"t":37566},{"dx":-13,"dy":-128,"t":37621},{"dx":-11,"dy":-129,"t":37659},{"dx":-1,"dy":-95,"t":37712},{"dx":14,"dy":-69,"t":37746},{"dx":13,"dy":-33,"t":37802},{"dx":9,"dy":-19,"t":37836},{"dx":-15,"dy":28,"t":37892},{"dx":-22,"dy":53,"t":37927},{"dx":85,"dy":150,"t":37983},{"dx":199,"dy":240,"t":38018},{"dx":250,"dy":380,"t":38077},{"dx":321,"dy":442,"t":38113},{"dx":268,"dy":500,"t":38170},{"dx":161,"dy":513,"t":38207},{"dx":121,"dy":440,"t":38264},{"dx":118,"dy":381,"t":38300},{"dx":55,"dy":279,"t":38361},{"dx":21,"dy":234,"t":38396},{"dx":71,"dy":118,"t":38452},{"dx":85,"dy":65,"t":38484},{"dx":93,"dy":-4,"t":38543},{"dx":89,"dy":-33,"t":38579},{"dx":98,"dy":-53,"t":38634},{"dx":116,"dy":-66,"t":38670},{"dx":130,"dy":-84,"t":38728},{"dx":117,"dy":-93,"t":38764},{"dx":73,"dy":-59,"t":38821},{"dx":50,"dy":-58,"t":38854},{"dx":100,"dy":-4,"t":38908},{"dx":143,"dy":13,"t":38943},{"dx":158,"dy":23,"t":39000},{"dx":130,"dy":30,"t":39035},{"dx":85,"dy":7,"t":39092},{"dx":68,"dy":-9,"t":39126},{"dx":123,"dy":-40,"t":39181},{"dx":157,"dy":-56,"t":39214},{"dx":173,"dy":-34,"t":39270},{"dx":181,"dy":-25,"t":39306},{"dx":137,"dy":8,"t":39364}]],"percent_in_roi":[67.3913043478261,40,24.444444444444443,53.48837209302325,95.55555555555556,37.77777777777778,69.56521739130434,70.45454545454545,57.77777777777777,47.72727272727273,44.44444444444444,0,65.11627906976744],"average_offset":[{"x":-67.02173913043478,"y":75.47826086956522,"r":141.56926660487088},{"x":180.15555555555557,"y":115.14444444444445,"r":130.9566321580272},{"x":-173.6888888888889,"y":-72,"r":55.42028420384154},{"x":-1.5116279069767442,"y":157.2906976744186,"r":128.94799199811578},{"x":-83.68888888888888,"y":-12.222222222222221,"r":50.960459133152725},{"x":201.51111111111112,"y":102.62222222222222,"r":192.51350185132918},{"x":4.6521739130434785,"y":86.47826086956522,"r":112.36138150460621},{"x":-39.90909090909091,"y":107.5,"r":222.29149385527776},{"x":-2.6666666666666665,"y":92.35555555555555,"r":132.77965782025572},{"x":7.25,"y":105.04545454545455,"r":286.34802888593106},{"x":180.44444444444446,"y":39.86666666666667,"r":86.08092947774836},{"x":316.04545454545456,"y":12.636363636363637,"r":153.70083556210443},{"x":93.06976744186046,"y":57.325581395348834,"r":121.36393160241948}],"samples_per_sec":"21.72","clicks":15,"pattern":"spread","trial_type":"webgazer-validate","trial_index":25,"time_elapsed":291344,"internal_node_id":"0.0-10.0-3.2","validation_points":[[37.5,37.5],[37.5,62.5],[85,85],[62.5,37.5],[75,75],[15,15],[62.5,62.5],[85,15],[50,50],[75,25],[25,75],[15,85],[25,25]],"user_agent":"Mozilla/5.0 (Macintosh; Intel Mac OS X 10_13_6) AppleWebKit/537.36 (KHTML, like Gecko) Chrome/88.0.4324.192 Safari/537.36","screen_width_px":1440,"screen_height_px":900},{"rt":2059.6150000055786,"stimulus":"\n      <p>Round complete.</p>\n      <p>You can move a little bit, but please try to return you head to the same general location before continuing.</p>\n    ","response":0,"trial_type":"html-button-response","trial_index":26,"time_elapsed":293406,"internal_node_id":"0.0-10.0-4.2","user_agent":"Mozilla/5.0 (Macintosh; Intel Mac OS X 10_13_6) AppleWebKit/537.36 (KHTML, like Gecko) Chrome/88.0.4324.192 Safari/537.36","screen_width_px":1440,"screen_height_px":900},{"trial_type":"webgazer-init-camera","trial_index":27,"time_elapsed":297250,"internal_node_id":"0.0-10.0-5.2","user_agent":"Mozilla/5.0 (Macintosh; Intel Mac OS X 10_13_6) AppleWebKit/537.36 (KHTML, like Gecko) Chrome/88.0.4324.192 Safari/537.36","screen_width_px":1440,"screen_height_px":900},{"rt":920.1549999997951,"stimulus":"\n      <p>Calibration phase next.</p>\n      <p>Click on the dots.</p>\n    ","response":0,"trial_type":"html-button-response","trial_index":28,"time_elapsed":298172,"internal_node_id":"0.0-10.0-0.3","user_agent":"Mozilla/5.0 (Macintosh; Intel Mac OS X 10_13_6) AppleWebKit/537.36 (KHTML, like Gecko) Chrome/88.0.4324.192 Safari/537.36","screen_width_px":1440,"screen_height_px":900},{"trial_type":"webgazer-calibrate","trial_index":29,"time_elapsed":313552,"internal_node_id":"0.0-10.0-1.3","user_agent":"Mozilla/5.0 (Macintosh; Intel Mac OS X 10_13_6) AppleWebKit/537.36 (KHTML, like Gecko) Chrome/88.0.4324.192 Safari/537.36","screen_width_px":1440,"screen_height_px":900},{"rt":856.1249999984284,"stimulus":"\n      <p>Validation phase next.</p>\n      <p>Look at the dots.</p>\n    ","response":0,"trial_type":"html-button-response","trial_index":30,"time_elapsed":314409,"internal_node_id":"0.0-10.0-2.3","user_agent":"Mozilla/5.0 (Macintosh; Intel Mac OS X 10_13_6) AppleWebKit/537.36 (KHTML, like Gecko) Chrome/88.0.4324.192 Safari/537.36","screen_width_px":1440,"screen_height_px":900},{"raw_gaze":[[{"dx":341,"dy":423,"t":1101},{"dx":261,"dy":418,"t":1137},{"dx":178,"dy":320,"t":1192},{"dx":128,"dy":233,"t":1224},{"dx":2,"dy":128,"t":1279},{"dx":-33,"dy":87,"t":1316},{"dx":-45,"dy":38,"t":1371},{"dx":-55,"dy":11,"t":1405},{"dx":-111,"dy":-18,"t":1463},{"dx":-126,"dy":-38,"t":1502},{"dx":-116,"dy":-69,"t":1558},{"dx":-93,"dy":-77,"t":1593},{"dx":-174,"dy":-65,"t":1649},{"dx":-174,"dy":-64,"t":1684},{"dx":-156,"dy":-58,"t":1742},{"dx":-153,"dy":-57,"t":1776},{"dx":-130,"dy":-41,"t":1832},{"dx":-143,"dy":-32,"t":1866},{"dx":-93,"dy":-26,"t":1923},{"dx":-78,"dy":-20,"t":1960},{"dx":-92,"dy":-16,"t":2016},{"dx":-116,"dy":-18,"t":2054},{"dx":-77,"dy":-26,"t":2108},{"dx":-50,"dy":-34,"t":2143},{"dx":123,"dy":120,"t":2199},{"dx":273,"dy":252,"t":2232},{"dx":301,"dy":373,"t":2288},{"dx":256,"dy":375,"t":2321},{"dx":213,"dy":380,"t":2375},{"dx":186,"dy":347,"t":2409},{"dx":77,"dy":265,"t":2466},{"dx":15,"dy":217,"t":2499},{"dx":-24,"dy":116,"t":2552},{"dx":-37,"dy":77,"t":2588},{"dx":-20,"dy":41,"t":2645},{"dx":-20,"dy":33,"t":2682},{"dx":-65,"dy":24,"t":2737},{"dx":-79,"dy":5,"t":2773},{"dx":-65,"dy":-22,"t":2828},{"dx":-44,"dy":-26,"t":2862},{"dx":-32,"dy":-10,"t":2921},{"dx":-31,"dy":-6,"t":2955},{"dx":-40,"dy":-6,"t":3015},{"dx":-52,"dy":-8,"t":3057},{"dx":-51,"dy":6,"t":3090}],[{"dx":58,"dy":292.5,"t":4120},{"dx":0,"dy":256.5,"t":4157},{"dx":-72,"dy":188.5,"t":4214},{"dx":-80,"dy":158.5,"t":4253},{"dx":-89,"dy":87.5,"t":4309},{"dx":-92,"dy":59.5,"t":4344},{"dx":-125,"dy":23.5,"t":4400},{"dx":-96,"dy":3.5,"t":4433},{"dx":-113,"dy":-18.5,"t":4488},{"dx":-90,"dy":-30.5,"t":4523},{"dx":-22,"dy":12.5,"t":4580},{"dx":2,"dy":54.5,"t":4614},{"dx":132,"dy":194.5,"t":4671},{"dx":201,"dy":297.5,"t":4704},{"dx":256,"dy":359.5,"t":4760},{"dx":275,"dy":366.5,"t":4794},{"dx":140,"dy":311.5,"t":4850},{"dx":64,"dy":247.5,"t":4883},{"dx":-43,"dy":214.5,"t":4938},{"dx":-101,"dy":181.5,"t":4970},{"dx":-98,"dy":156.5,"t":5027},{"dx":-65,"dy":159.5,"t":5061},{"dx":-48,"dy":123.5,"t":5117},{"dx":-39,"dy":117.5,"t":5153},{"dx":-6,"dy":110.5,"t":5208},{"dx":7,"dy":112.5,"t":5242},{"dx":23,"dy":91.5,"t":5297},{"dx":34,"dy":90.5,"t":5333},{"dx":15,"dy":78.5,"t":5391},{"dx":2,"dy":83.5,"t":5428},{"dx":15,"dy":57.5,"t":5484},{"dx":-14,"dy":78.5,"t":5524},{"dx":-27,"dy":59.5,"t":5583},{"dx":-64,"dy":45.5,"t":5618},{"dx":-89,"dy":53.5,"t":5675},{"dx":-79,"dy":46.5,"t":5714},{"dx":-24,"dy":38.5,"t":5770},{"dx":3,"dy":41.5,"t":5804},{"dx":-19,"dy":27.5,"t":5858},{"dx":-49,"dy":35.5,"t":5896},{"dx":-49,"dy":49.5,"t":5952},{"dx":-31,"dy":54.5,"t":5989},{"dx":3,"dy":77.5,"t":6048},{"dx":11,"dy":89.5,"t":6092},{"dx":36,"dy":110.5,"t":6125}],[{"dx":-63,"dy":318,"t":7107},{"dx":-77,"dy":247,"t":7191},{"dx":-34,"dy":196,"t":7226},{"dx":-22,"dy":102,"t":7282},{"dx":-52,"dy":56,"t":7320},{"dx":-78,"dy":32,"t":7379},{"dx":-88,"dy":43,"t":7415},{"dx":-31,"dy":183,"t":7475},{"dx":-20,"dy":320,"t":7510},{"dx":10,"dy":416,"t":7568},{"dx":26,"dy":427,"t":7603},{"dx":-22,"dy":398,"t":7660},{"dx":-57,"dy":393,"t":7695},{"dx":-63,"dy":266,"t":7750},{"dx":-40,"dy":229,"t":7785},{"dx":-21,"dy":111,"t":7843},{"dx":19,"dy":65,"t":7880},{"dx":23,"dy":-7,"t":7934},{"dx":37,"dy":-41,"t":7969},{"dx":-29,"dy":92,"t":8025},{"dx":-75,"dy":214,"t":8060},{"dx":-46,"dy":357,"t":8116},{"dx":-82,"dy":409,"t":8152},{"dx":-198,"dy":423,"t":8209},{"dx":-319,"dy":388,"t":8245},{"dx":-381,"dy":323,"t":8300},{"dx":-426,"dy":295,"t":8334},{"dx":-464,"dy":184,"t":8388},{"dx":-461,"dy":154,"t":8424},{"dx":-494,"dy":96,"t":8482},{"dx":-490,"dy":85,"t":8515},{"dx":-487,"dy":54,"t":8571},{"dx":-472,"dy":42,"t":8604},{"dx":-403,"dy":71,"t":8659},{"dx":-390,"dy":88,"t":8696},{"dx":-344,"dy":91,"t":8752},{"dx":-310,"dy":74,"t":8786},{"dx":-231,"dy":91,"t":8844},{"dx":-210,"dy":77,"t":8876},{"dx":-247,"dy":62,"t":8934},{"dx":-267,"dy":61,"t":9026},{"dx":-290,"dy":63,"t":9082},{"dx":-328,"dy":53,"t":9124},{"dx":-215,"dy":37,"t":9156}],[{"dx":451,"dy":355,"t":10193},{"dx":460,"dy":325,"t":10229},{"dx":421,"dy":245,"t":10286},{"dx":380,"dy":192,"t":10322},{"dx":364,"dy":129,"t":10379},{"dx":358,"dy":101,"t":10411},{"dx":329,"dy":66,"t":10467},{"dx":307,"dy":72,"t":10502},{"dx":253,"dy":122,"t":10558},{"dx":215,"dy":160,"t":10594},{"dx":321,"dy":342,"t":10649},{"dx":429,"dy":464,"t":10691},{"dx":616,"dy":547,"t":10752},{"dx":669,"dy":526,"t":10789},{"dx":636,"dy":436,"t":10849},{"dx":526,"dy":420,"t":10884},{"dx":355,"dy":323,"t":10938},{"dx":275,"dy":253,"t":10971},{"dx":147,"dy":148,"t":11028},{"dx":113,"dy":101,"t":11064},{"dx":113,"dy":65,"t":11121},{"dx":129,"dy":76,"t":11156},{"dx":162,"dy":103,"t":11211},{"dx":178,"dy":111,"t":11245},{"dx":205,"dy":62,"t":11300},{"dx":220,"dy":32,"t":11333},{"dx":250,"dy":67,"t":11388},{"dx":260,"dy":91,"t":11422},{"dx":272,"dy":81,"t":11481},{"dx":271,"dy":73,"t":11519},{"dx":305,"dy":92,"t":11575},{"dx":325,"dy":99,"t":11610},{"dx":335,"dy":132,"t":11666},{"dx":325,"dy":161,"t":11702},{"dx":315,"dy":181,"t":11761},{"dx":364,"dy":196,"t":11795},{"dx":371,"dy":187,"t":11849},{"dx":375,"dy":177,"t":11883},{"dx":382,"dy":150,"t":11938},{"dx":438,"dy":159,"t":11972},{"dx":451,"dy":184,"t":12029},{"dx":407,"dy":181,"t":12062},{"dx":319,"dy":129,"t":12117},{"dx":318,"dy":106,"t":12158},{"dx":275,"dy":59,"t":12190}],[{"dx":417,"dy":446.5,"t":13215},{"dx":467,"dy":467.5,"t":13252},{"dx":459,"dy":454.5,"t":13306},{"dx":425,"dy":477.5,"t":13342},{"dx":243,"dy":430.5,"t":13398},{"dx":239,"dy":405.5,"t":13431},{"dx":121,"dy":311.5,"t":13489},{"dx":81,"dy":280.5,"t":13528},{"dx":142,"dy":284.5,"t":13585},{"dx":227,"dy":360.5,"t":13621},{"dx":364,"dy":421.5,"t":13677},{"dx":428,"dy":447.5,"t":13710},{"dx":333,"dy":419.5,"t":13766},{"dx":227,"dy":371.5,"t":13801},{"dx":78,"dy":288.5,"t":13856},{"dx":-31,"dy":237.5,"t":13890},{"dx":-64,"dy":157.5,"t":13946},{"dx":-73,"dy":106.5,"t":13979},{"dx":-148,"dy":79.5,"t":14035},{"dx":-196,"dy":71.5,"t":14069},{"dx":-66,"dy":180.5,"t":14124},{"dx":74,"dy":250.5,"t":14157},{"dx":345,"dy":297.5,"t":14213},{"dx":429,"dy":298.5,"t":14246},{"dx":377,"dy":312.5,"t":14303},{"dx":271,"dy":281.5,"t":14339},{"dx":169,"dy":228.5,"t":14394},{"dx":104,"dy":220.5,"t":14432},{"dx":3,"dy":161.5,"t":14489},{"dx":-7,"dy":130.5,"t":14524},{"dx":-62,"dy":59.5,"t":14580},{"dx":-74,"dy":36.5,"t":14617},{"dx":-141,"dy":25.5,"t":14684},{"dx":-180,"dy":18.5,"t":14777},{"dx":-128,"dy":31.5,"t":14834},{"dx":-113,"dy":35.5,"t":14870},{"dx":-98,"dy":37.5,"t":14926},{"dx":-105,"dy":28.5,"t":14964},{"dx":-88,"dy":43.5,"t":15022},{"dx":-71,"dy":53.5,"t":15057},{"dx":-49,"dy":57.5,"t":15112},{"dx":-45,"dy":56.5,"t":15149},{"dx":-44,"dy":90.5,"t":15206},{"dx":-49,"dy":117.5,"t":15223}],[{"dx":-64,"dy":9.5,"t":16231},{"dx":-101,"dy":-0.5,"t":16287},{"dx":-81,"dy":33.5,"t":16322},{"dx":45,"dy":66.5,"t":16378},{"dx":141,"dy":65.5,"t":16411},{"dx":348,"dy":110.5,"t":16467},{"dx":416,"dy":161.5,"t":16502},{"dx":439,"dy":135.5,"t":16558},{"dx":394,"dy":110.5,"t":16593},{"dx":350,"dy":104.5,"t":16649},{"dx":325,"dy":102.5,"t":16686},{"dx":239,"dy":101.5,"t":16744},{"dx":218,"dy":101.5,"t":16780},{"dx":109,"dy":86.5,"t":16835},{"dx":33,"dy":96.5,"t":16872},{"dx":39,"dy":124.5,"t":16927},{"dx":87,"dy":136.5,"t":16962},{"dx":259,"dy":170.5,"t":17017},{"dx":379,"dy":205.5,"t":17053},{"dx":479,"dy":196.5,"t":17110},{"dx":496,"dy":172.5,"t":17147},{"dx":385,"dy":146.5,"t":17204},{"dx":310,"dy":125.5,"t":17238},{"dx":207,"dy":109.5,"t":17292},{"dx":179,"dy":90.5,"t":17328},{"dx":62,"dy":82.5,"t":17383},{"dx":4,"dy":71.5,"t":17419},{"dx":-41,"dy":83.5,"t":17476},{"dx":-44,"dy":67.5,"t":17511},{"dx":-38,"dy":65.5,"t":17568},{"dx":-37,"dy":52.5,"t":17607},{"dx":-80,"dy":48.5,"t":17662},{"dx":-108,"dy":35.5,"t":17695},{"dx":-129,"dy":22.5,"t":17749},{"dx":-156,"dy":16.5,"t":17784},{"dx":-86,"dy":12.5,"t":17840},{"dx":-69,"dy":10.5,"t":17875},{"dx":-80,"dy":-9.5,"t":17931},{"dx":-79,"dy":-7.5,"t":17965},{"dx":-81,"dy":-11.5,"t":18018},{"dx":-64,"dy":-9.5,"t":18053},{"dx":-11,"dy":5.5,"t":18109},{"dx":-12,"dy":22.5,"t":18146},{"dx":-2,"dy":13.5,"t":18201},{"dx":29,"dy":-2.5,"t":18241},{"dx":104,"dy":-11.5,"t":18271}],[{"dx":106,"dy":-122,"t":19262},{"dx":31,"dy":-110,"t":19346},{"dx":8,"dy":-104,"t":19379},{"dx":-14,"dy":-67,"t":19437},{"dx":-4,"dy":-55,"t":19472},{"dx":-49,"dy":-72,"t":19528},{"dx":-96,"dy":-88,"t":19562},{"dx":-90,"dy":-105,"t":19618},{"dx":-78,"dy":-127,"t":19655},{"dx":-35,"dy":-165,"t":19715},{"dx":-4,"dy":-188,"t":19751},{"dx":6,"dy":-186,"t":19804},{"dx":7,"dy":-174,"t":19839},{"dx":52,"dy":-152,"t":19894},{"dx":44,"dy":-129,"t":19928},{"dx":38,"dy":-83,"t":19981},{"dx":32,"dy":-60,"t":20015},{"dx":39,"dy":18,"t":20071},{"dx":37,"dy":75,"t":20106},{"dx":30,"dy":71,"t":20160},{"dx":42,"dy":39,"t":20193},{"dx":79,"dy":11,"t":20247},{"dx":78,"dy":-9,"t":20282},{"dx":98,"dy":-49,"t":20339},{"dx":111,"dy":-49,"t":20372},{"dx":18,"dy":-37,"t":20429},{"dx":-7,"dy":-46,"t":20464},{"dx":-51,"dy":-52,"t":20517},{"dx":-68,"dy":-63,"t":20563},{"dx":-42,"dy":-73,"t":20679},{"dx":-25,"dy":-89,"t":20714},{"dx":-5,"dy":-99,"t":20769},{"dx":-2,"dy":-97,"t":20802},{"dx":-9,"dy":-98,"t":20856},{"dx":-30,"dy":-95,"t":20892},{"dx":-38,"dy":-62,"t":20949},{"dx":-51,"dy":-42,"t":20987},{"dx":-73,"dy":-38,"t":21044},{"dx":-99,"dy":-58,"t":21083},{"dx":-113,"dy":-95,"t":21141},{"dx":-129,"dy":-104,"t":21180},{"dx":-136,"dy":-110,"t":21242},{"dx":-115,"dy":-119,"t":21283},{"dx":-46,"dy":-101,"t":21316}],[{"dx":-44,"dy":-161,"t":22343},{"dx":-44,"dy":-167,"t":22378},{"dx":-27,"dy":-181,"t":22435},{"dx":-35,"dy":-192,"t":22470},{"dx":-63,"dy":-192,"t":22527},{"dx":-87,"dy":-189,"t":22561},{"dx":-110,"dy":-175,"t":22617},{"dx":-110,"dy":-174,"t":22652},{"dx":-121,"dy":-158,"t":22708},{"dx":-150,"dy":-152,"t":22743},{"dx":-121,"dy":-154,"t":22800},{"dx":-85,"dy":-173,"t":22835},{"dx":-67,"dy":-176,"t":22891},{"dx":-72,"dy":-166,"t":22927},{"dx":-118,"dy":-155,"t":22982},{"dx":-145,"dy":-162,"t":23020},{"dx":-179,"dy":-157,"t":23080},{"dx":-172,"dy":-158,"t":23118},{"dx":-215,"dy":-128,"t":23175},{"dx":-255,"dy":-100,"t":23211},{"dx":-258,"dy":-105,"t":23265},{"dx":-255,"dy":-127,"t":23300},{"dx":-214,"dy":-117,"t":23358},{"dx":-173,"dy":-105,"t":23394},{"dx":-73,"dy":-122,"t":23450},{"dx":-34,"dy":-143,"t":23486},{"dx":-33,"dy":-160,"t":23543},{"dx":-40,"dy":-172,"t":23582},{"dx":-51,"dy":-178,"t":23639},{"dx":-63,"dy":-181,"t":23672},{"dx":-64,"dy":-163,"t":23727},{"dx":-40,"dy":-161,"t":23762},{"dx":-60,"dy":-160,"t":23820},{"dx":-81,"dy":-159,"t":23851},{"dx":-108,"dy":-143,"t":23908},{"dx":-116,"dy":-131,"t":23941},{"dx":-85,"dy":-141,"t":23996},{"dx":-78,"dy":-157,"t":24028},{"dx":-96,"dy":-144,"t":24083},{"dx":-126,"dy":-144,"t":24121},{"dx":-122,"dy":-145,"t":24179},{"dx":-124,"dy":-149,"t":24211},{"dx":-94,"dy":-158,"t":24265},{"dx":-83,"dy":-182,"t":24302},{"dx":-51,"dy":-179,"t":24332}],[{"dx":173,"dy":-113,"t":25348},{"dx":134,"dy":-102,"t":25404},{"dx":104,"dy":-96,"t":25438},{"dx":221,"dy":-78,"t":25491},{"dx":350,"dy":-74,"t":25528},{"dx":569,"dy":-3,"t":25585},{"dx":747,"dy":28,"t":25622},{"dx":839,"dy":24,"t":25679},{"dx":810,"dy":23,"t":25713},{"dx":713,"dy":-13,"t":25767},{"dx":660,"dy":-29,"t":25802},{"dx":520,"dy":-54,"t":25858},{"dx":435,"dy":-61,"t":25891},{"dx":391,"dy":-97,"t":25947},{"dx":360,"dy":-108,"t":25982},{"dx":340,"dy":-98,"t":26036},{"dx":339,"dy":-98,"t":26070},{"dx":349,"dy":-111,"t":26126},{"dx":299,"dy":-92,"t":26162},{"dx":319,"dy":-85,"t":26215},{"dx":360,"dy":-85,"t":26251},{"dx":455,"dy":-54,"t":26307},{"dx":487,"dy":-26,"t":26340},{"dx":594,"dy":-3,"t":26395},{"dx":639,"dy":-18,"t":26428},{"dx":612,"dy":-35,"t":26486},{"dx":569,"dy":-56,"t":26523},{"dx":563,"dy":-90,"t":26580},{"dx":562,"dy":-113,"t":26615},{"dx":531,"dy":-103,"t":26671},{"dx":542,"dy":-100,"t":26704},{"dx":530,"dy":-90,"t":26760},{"dx":526,"dy":-89,"t":26860},{"dx":389,"dy":-76,"t":26917},{"dx":316,"dy":-68,"t":26951},{"dx":273,"dy":-79,"t":27007},{"dx":266,"dy":-82,"t":27041},{"dx":238,"dy":-105,"t":27096},{"dx":279,"dy":-107,"t":27129},{"dx":304,"dy":-120,"t":27184},{"dx":284,"dy":-120,"t":27217},{"dx":346,"dy":-95,"t":27275},{"dx":366,"dy":-82,"t":27319},{"dx":287,"dy":-42,"t":27353}],[{"dx":235,"dy":205,"t":28379},{"dx":242,"dy":243,"t":28415},{"dx":148,"dy":269,"t":28470},{"dx":66,"dy":248,"t":28506},{"dx":8,"dy":211,"t":28559},{"dx":-46,"dy":183,"t":28593},{"dx":-128,"dy":142,"t":28649},{"dx":-163,"dy":125,"t":28683},{"dx":-63,"dy":125,"t":28738},{"dx":35,"dy":134,"t":28772},{"dx":174,"dy":254,"t":28828},{"dx":281,"dy":293,"t":28861},{"dx":315,"dy":314,"t":28916},{"dx":316,"dy":295,"t":28950},{"dx":232,"dy":246,"t":29006},{"dx":157,"dy":216,"t":29042},{"dx":16,"dy":124,"t":29096},{"dx":-42,"dy":67,"t":29130},{"dx":-127,"dy":7,"t":29187},{"dx":-145,"dy":0,"t":29223},{"dx":-195,"dy":7,"t":29278},{"dx":-186,"dy":9,"t":29311},{"dx":-197,"dy":4,"t":29367},{"dx":-185,"dy":10,"t":29403},{"dx":-146,"dy":26,"t":29458},{"dx":-127,"dy":10,"t":29492},{"dx":-152,"dy":66,"t":29549},{"dx":-155,"dy":99,"t":29584},{"dx":-111,"dy":129,"t":29641},{"dx":-62,"dy":126,"t":29675},{"dx":-6,"dy":96,"t":29729},{"dx":11,"dy":81,"t":29764},{"dx":-60,"dy":29,"t":29819},{"dx":-87,"dy":17,"t":29855},{"dx":-151,"dy":-15,"t":29912},{"dx":-194,"dy":-6,"t":29947},{"dx":-212,"dy":-10,"t":30003},{"dx":-210,"dy":-20,"t":30038},{"dx":-106,"dy":14,"t":30093},{"dx":-68,"dy":24,"t":30129},{"dx":43,"dy":16,"t":30184},{"dx":102,"dy":9,"t":30218},{"dx":76,"dy":18,"t":30274},{"dx":79,"dy":39,"t":30308},{"dx":5,"dy":68,"t":30371},{"dx":-42,"dy":90,"t":30385}],[{"dx":-195,"dy":294,"t":31384},{"dx":-205,"dy":375,"t":31472},{"dx":-224,"dy":392,"t":31504},{"dx":-252,"dy":340,"t":31558},{"dx":-238,"dy":287,"t":31595},{"dx":-297,"dy":217,"t":31653},{"dx":-310,"dy":169,"t":31688},{"dx":-306,"dy":106,"t":31744},{"dx":-313,"dy":72,"t":31780},{"dx":-292,"dy":26,"t":31837},{"dx":-293,"dy":24,"t":31872},{"dx":-283,"dy":16,"t":31929},{"dx":-277,"dy":13,"t":31963},{"dx":-245,"dy":29,"t":32018},{"dx":-215,"dy":32,"t":32052},{"dx":-191,"dy":49,"t":32108},{"dx":-196,"dy":61,"t":32142},{"dx":-194,"dy":174,"t":32199},{"dx":-182,"dy":261,"t":32235},{"dx":-145,"dy":383,"t":32289},{"dx":-199,"dy":414,"t":32325},{"dx":-166,"dy":482,"t":32382},{"dx":-158,"dy":503,"t":32417},{"dx":-199,"dy":458,"t":32475},{"dx":-236,"dy":423,"t":32508},{"dx":-244,"dy":318,"t":32563},{"dx":-224,"dy":258,"t":32596},{"dx":-199,"dy":138,"t":32651},{"dx":-191,"dy":90,"t":32687},{"dx":-183,"dy":55,"t":32744},{"dx":-212,"dy":42,"t":32779},{"dx":-205,"dy":41,"t":32835},{"dx":-216,"dy":40,"t":32877},{"dx":-216,"dy":65,"t":32989},{"dx":-221,"dy":88,"t":33026},{"dx":-203,"dy":101,"t":33082},{"dx":-214,"dy":110,"t":33114},{"dx":-230,"dy":99,"t":33169},{"dx":-229,"dy":86,"t":33205},{"dx":-181,"dy":88,"t":33262},{"dx":-151,"dy":89,"t":33294},{"dx":-138,"dy":76,"t":33348},{"dx":-131,"dy":75,"t":33388},{"dx":-145,"dy":87,"t":33421}],[{"dx":-172,"dy":7.5,"t":34415},{"dx":-119,"dy":5.5,"t":34469},{"dx":-101,"dy":9.5,"t":34502},{"dx":-43,"dy":24.5,"t":34555},{"dx":-16,"dy":48.5,"t":34590},{"dx":86,"dy":74.5,"t":34646},{"dx":132,"dy":70.5,"t":34683},{"dx":158,"dy":100.5,"t":34739},{"dx":175,"dy":97.5,"t":34772},{"dx":178,"dy":98.5,"t":34828},{"dx":158,"dy":96.5,"t":34863},{"dx":17,"dy":80.5,"t":34922},{"dx":-58,"dy":62.5,"t":34957},{"dx":-83,"dy":50.5,"t":35012},{"dx":-102,"dy":38.5,"t":35045},{"dx":-134,"dy":-4.5,"t":35101},{"dx":-148,"dy":-21.5,"t":35136},{"dx":-210,"dy":-42.5,"t":35191},{"dx":-235,"dy":-57.5,"t":35226},{"dx":-238,"dy":-87.5,"t":35282},{"dx":-318,"dy":-96.5,"t":35315},{"dx":-237,"dy":-35.5,"t":35373},{"dx":-173,"dy":-13.5,"t":35406},{"dx":-58,"dy":69.5,"t":35460},{"dx":-16,"dy":87.5,"t":35495},{"dx":21,"dy":137.5,"t":35550},{"dx":15,"dy":137.5,"t":35584},{"dx":-40,"dy":103.5,"t":35640},{"dx":-96,"dy":67.5,"t":35674},{"dx":-170,"dy":25.5,"t":35731},{"dx":-204,"dy":12.5,"t":35763},{"dx":-268,"dy":-1.5,"t":35817},{"dx":-301,"dy":-35.5,"t":35852},{"dx":-262,"dy":-10.5,"t":35908},{"dx":-234,"dy":-5.5,"t":35941},{"dx":-182,"dy":7.5,"t":35997},{"dx":-168,"dy":34.5,"t":36031},{"dx":-26,"dy":37.5,"t":36087},{"dx":40,"dy":30.5,"t":36124},{"dx":-28,"dy":31.5,"t":36183},{"dx":-54,"dy":32.5,"t":36220},{"dx":-84,"dy":38.5,"t":36276},{"dx":-76,"dy":49.5,"t":36312},{"dx":-109,"dy":21.5,"t":36366},{"dx":-140,"dy":6.5,"t":36406},{"dx":-198,"dy":-8.5,"t":36438}],[{"dx":-263,"dy":-92,"t":37468},{"dx":-200,"dy":-89,"t":37502},{"dx":-195,"dy":-80,"t":37558},{"dx":-229,"dy":-50,"t":37590},{"dx":-211,"dy":-37,"t":37648},{"dx":-191,"dy":-35,"t":37683},{"dx":-141,"dy":-33,"t":37743},{"dx":-168,"dy":-42,"t":37781},{"dx":-82,"dy":-34,"t":37837},{"dx":-48,"dy":-24,"t":37869},{"dx":-124,"dy":-42,"t":37924},{"dx":-151,"dy":-52,"t":37957},{"dx":-148,"dy":-72,"t":38013},{"dx":-164,"dy":-74,"t":38050},{"dx":-100,"dy":-58,"t":38106},{"dx":-73,"dy":-64,"t":38140},{"dx":-26,"dy":-53,"t":38195},{"dx":-43,"dy":-46,"t":38231},{"dx":100,"dy":7,"t":38287},{"dx":206,"dy":47,"t":38323},{"dx":394,"dy":97,"t":38379},{"dx":534,"dy":132,"t":38414},{"dx":633,"dy":119,"t":38470},{"dx":640,"dy":99,"t":38505},{"dx":528,"dy":75,"t":38561},{"dx":442,"dy":58,"t":38592},{"dx":256,"dy":32,"t":38647},{"dx":162,"dy":12,"t":38683},{"dx":46,"dy":14,"t":38741},{"dx":27,"dy":8,"t":38777},{"dx":57,"dy":-7,"t":38833},{"dx":75,"dy":-26,"t":38866},{"dx":70,"dy":-71,"t":38921},{"dx":41,"dy":-52,"t":38955},{"dx":44,"dy":-82,"t":39012},{"dx":67,"dy":-105,"t":39114},{"dx":64,"dy":-82,"t":39170},{"dx":37,"dy":-74,"t":39204},{"dx":80,"dy":-63,"t":39260},{"dx":79,"dy":-71,"t":39293},{"dx":26,"dy":-71,"t":39348},{"dx":34,"dy":-71,"t":39384}]],"percent_in_roi":[64.44444444444444,68.88888888888889,20.454545454545457,4.444444444444445,34.090909090909086,58.69565217391305,79.54545454545455,4.444444444444445,2.272727272727273,45.65217391304348,0,56.52173913043478,54.761904761904766],"average_offset":[{"x":-4.911111111111111,"y":78.93333333333334,"r":137.00604654584941},{"x":-7.711111111111111,"y":116.67777777777778,"r":89.88946023716237},{"x":-186.63636363636363,"y":173.5909090909091,"r":300.4257031480778},{"x":333.1111111111111,"y":184.0222222222222,"r":118.31470067181729},{"x":95.25,"y":217.5909090909091,"r":351.88529372005286},{"x":102.45652173913044,"y":72.21739130434783,"r":274.2219489078759},{"x":-12.568181818181818,"y":-76.31818181818181,"r":118.58687858234505},{"x":-105.37777777777778,"y":-155.46666666666667,"r":44.75668099655246},{"x":431.59090909090907,"y":-69.88636363636364,"r":202.96212714776175},{"x":-17.934782608695652,"y":100.80434782608695,"r":213.84563808527372},{"x":-216.9090909090909,"y":171.5,"r":187.0487694319686},{"x":-89.58695652173913,"y":29.91304347826087,"r":140.45850644345126},{"x":49.642857142857146,"y":-25.047619047619047,"r":208.5609489856748}],"samples_per_sec":"21.70","clicks":15,"pattern":"cond","trial_type":"webgazer-validate","trial_index":31,"time_elapsed":354811,"internal_node_id":"0.0-10.0-3.3","validation_points":[[25,25],[62.5,37.5],[75,25],[15,15],[37.5,37.5],[37.5,62.5],[75,75],[85,85],[15,85],[50,50],[85,15],[62.5,62.5],[25,75]],"user_agent":"Mozilla/5.0 (Macintosh; Intel Mac OS X 10_13_6) AppleWebKit/537.36 (KHTML, like Gecko) Chrome/88.0.4324.192 Safari/537.36","screen_width_px":1440,"screen_height_px":900},{"rt":6583.419999995385,"stimulus":"\n      <p>Round complete.</p>\n      <p>You can move a little bit, but please try to return you head to the same general location before continuing.</p>\n    ","response":0,"trial_type":"html-button-response","trial_index":32,"time_elapsed":361400,"internal_node_id":"0.0-10.0-4.3","user_agent":"Mozilla/5.0 (Macintosh; Intel Mac OS X 10_13_6) AppleWebKit/537.36 (KHTML, like Gecko) Chrome/88.0.4324.192 Safari/537.36","screen_width_px":1440,"screen_height_px":900},{"trial_type":"webgazer-init-camera","trial_index":33,"time_elapsed":373883,"internal_node_id":"0.0-10.0-5.3","user_agent":"Mozilla/5.0 (Macintosh; Intel Mac OS X 10_13_6) AppleWebKit/537.36 (KHTML, like Gecko) Chrome/88.0.4324.192 Safari/537.36","screen_width_px":1440,"screen_height_px":900},{"rt":1438.2150000019465,"stimulus":"\n      <p>Calibration phase next.</p>\n      <p>Click on the dots.</p>\n    ","response":0,"trial_type":"html-button-response","trial_index":34,"time_elapsed":375323,"internal_node_id":"0.0-10.0-0.4","user_agent":"Mozilla/5.0 (Macintosh; Intel Mac OS X 10_13_6) AppleWebKit/537.36 (KHTML, like Gecko) Chrome/88.0.4324.192 Safari/537.36","screen_width_px":1440,"screen_height_px":900},{"trial_type":"webgazer-calibrate","trial_index":35,"time_elapsed":413622,"internal_node_id":"0.0-10.0-1.4","user_agent":"Mozilla/5.0 (Macintosh; Intel Mac OS X 10_13_6) AppleWebKit/537.36 (KHTML, like Gecko) Chrome/88.0.4324.192 Safari/537.36","screen_width_px":1440,"screen_height_px":900},{"rt":1009.0950000012526,"stimulus":"\n      <p>Validation phase next.</p>\n      <p>Look at the dots.</p>\n    ","response":0,"trial_type":"html-button-response","trial_index":36,"time_elapsed":414635,"internal_node_id":"0.0-10.0-2.4","user_agent":"Mozilla/5.0 (Macintosh; Intel Mac OS X 10_13_6) AppleWebKit/537.36 (KHTML, like Gecko) Chrome/88.0.4324.192 Safari/537.36","screen_width_px":1440,"screen_height_px":900},{"raw_gaze":[[{"dx":291,"dy":33.5,"t":1086},{"dx":219,"dy":4.5,"t":1124},{"dx":166,"dy":-67.5,"t":1181},{"dx":230,"dy":-141.5,"t":1216},{"dx":171,"dy":-137.5,"t":1272},{"dx":157,"dy":-125.5,"t":1307},{"dx":139,"dy":-182.5,"t":1362},{"dx":109,"dy":-172.5,"t":1396},{"dx":39,"dy":-173.5,"t":1452},{"dx":12,"dy":-151.5,"t":1490},{"dx":-35,"dy":-130.5,"t":1548},{"dx":-61,"dy":-120.5,"t":1585},{"dx":-103,"dy":-79.5,"t":1641},{"dx":-96,"dy":-59.5,"t":1681},{"dx":-175,"dy":33.5,"t":1737},{"dx":-180,"dy":57.5,"t":1778},{"dx":-239,"dy":39.5,"t":1835},{"dx":-263,"dy":65.5,"t":1868},{"dx":-264,"dy":-25.5,"t":1921},{"dx":-262,"dy":-55.5,"t":1953},{"dx":-165,"dy":-124.5,"t":2010},{"dx":-145,"dy":-144.5,"t":2045},{"dx":-83,"dy":-131.5,"t":2103},{"dx":-70,"dy":-117.5,"t":2139},{"dx":-217,"dy":-94.5,"t":2193},{"dx":-219,"dy":-85.5,"t":2226},{"dx":-212,"dy":-144.5,"t":2280},{"dx":-270,"dy":-115.5,"t":2314},{"dx":-254,"dy":-164.5,"t":2373},{"dx":-263,"dy":-187.5,"t":2412},{"dx":-290,"dy":-152.5,"t":2469},{"dx":-313,"dy":-114.5,"t":2504},{"dx":-262,"dy":-84.5,"t":2561},{"dx":-293,"dy":-99.5,"t":2595},{"dx":-290,"dy":-157.5,"t":2651},{"dx":-301,"dy":-161.5,"t":2686},{"dx":-273,"dy":-158.5,"t":2745},{"dx":-254,"dy":-153.5,"t":2783},{"dx":-235,"dy":-118.5,"t":2839},{"dx":-224,"dy":-109.5,"t":2879},{"dx":-201,"dy":-64.5,"t":2934},{"dx":-189,"dy":-41.5,"t":2967},{"dx":-228,"dy":-35.5,"t":3024},{"dx":-270,"dy":-47.5,"t":3067},{"dx":-330,"dy":-79.5,"t":3100}],[{"dx":-55,"dy":-19.5,"t":4102},{"dx":195,"dy":139.5,"t":4185},{"dx":324,"dy":195.5,"t":4221},{"dx":466,"dy":241.5,"t":4276},{"dx":457,"dy":211.5,"t":4310},{"dx":311,"dy":157.5,"t":4366},{"dx":268,"dy":97.5,"t":4401},{"dx":241,"dy":-21.5,"t":4455},{"dx":273,"dy":-92.5,"t":4492},{"dx":141,"dy":-174.5,"t":4548},{"dx":82,"dy":-211.5,"t":4583},{"dx":-142,"dy":-138.5,"t":4639},{"dx":-205,"dy":-113.5,"t":4675},{"dx":-226,"dy":-109.5,"t":4735},{"dx":-197,"dy":-125.5,"t":4771},{"dx":-180,"dy":-81.5,"t":4825},{"dx":-154,"dy":-105.5,"t":4862},{"dx":-89,"dy":-25.5,"t":4915},{"dx":-32,"dy":16.5,"t":4951},{"dx":149,"dy":144.5,"t":5008},{"dx":273,"dy":203.5,"t":5044},{"dx":252,"dy":344.5,"t":5099},{"dx":250,"dy":363.5,"t":5136},{"dx":205,"dy":334.5,"t":5190},{"dx":156,"dy":279.5,"t":5229},{"dx":177,"dy":182.5,"t":5285},{"dx":193,"dy":136.5,"t":5322},{"dx":147,"dy":82.5,"t":5378},{"dx":104,"dy":75.5,"t":5414},{"dx":18,"dy":-37.5,"t":5470},{"dx":-25,"dy":-80.5,"t":5503},{"dx":-27,"dy":-119.5,"t":5562},{"dx":-51,"dy":-113.5,"t":5597},{"dx":-111,"dy":-130.5,"t":5656},{"dx":-133,"dy":-154.5,"t":5692},{"dx":-174,"dy":-131.5,"t":5750},{"dx":-184,"dy":-114.5,"t":5785},{"dx":-185,"dy":-91.5,"t":5841},{"dx":-200,"dy":-65.5,"t":5879},{"dx":-212,"dy":-98.5,"t":5937},{"dx":-216,"dy":-121.5,"t":5972},{"dx":-232,"dy":-115.5,"t":6026},{"dx":-238,"dy":-97.5,"t":6068},{"dx":-217,"dy":-86.5,"t":6101}],[{"dx":-132,"dy":-97,"t":7126},{"dx":67,"dy":-144,"t":7186},{"dx":158,"dy":-160,"t":7227},{"dx":188,"dy":-167,"t":7284},{"dx":150,"dy":-156,"t":7320},{"dx":-40,"dy":-160,"t":7377},{"dx":-120,"dy":-160,"t":7417},{"dx":-167,"dy":-149,"t":7473},{"dx":-156,"dy":-149,"t":7509},{"dx":-143,"dy":-151,"t":7562},{"dx":-131,"dy":-167,"t":7601},{"dx":-66,"dy":-190,"t":7656},{"dx":-3,"dy":-208,"t":7689},{"dx":-37,"dy":-152,"t":7747},{"dx":-61,"dy":-120,"t":7791},{"dx":-102,"dy":-113,"t":7848},{"dx":-102,"dy":-135,"t":7884},{"dx":-77,"dy":-148,"t":7940},{"dx":-99,"dy":-130,"t":7978},{"dx":-53,"dy":-150,"t":8042},{"dx":-32,"dy":-150,"t":8076},{"dx":-69,"dy":-138,"t":8134},{"dx":-79,"dy":-139,"t":8168},{"dx":-103,"dy":-141,"t":8223},{"dx":-131,"dy":-144,"t":8257},{"dx":-272,"dy":-169,"t":8312},{"dx":-323,"dy":-170,"t":8347},{"dx":-277,"dy":-160,"t":8404},{"dx":-238,"dy":-143,"t":8438},{"dx":-215,"dy":-224,"t":8492},{"dx":-179,"dy":-266,"t":8528},{"dx":-68,"dy":-288,"t":8586},{"dx":-33,"dy":-287,"t":8623},{"dx":-34,"dy":-285,"t":8679},{"dx":-20,"dy":-268,"t":8715},{"dx":30,"dy":-219,"t":8770},{"dx":-3,"dy":-195,"t":8804},{"dx":-62,"dy":-211,"t":8863},{"dx":-72,"dy":-243,"t":8912},{"dx":-95,"dy":-160,"t":9018},{"dx":-135,"dy":-98,"t":9055},{"dx":-230,"dy":-101,"t":9113},{"dx":-264,"dy":-109,"t":9128}],[{"dx":26,"dy":-131,"t":10151},{"dx":402,"dy":-154,"t":10206},{"dx":615,"dy":-161,"t":10241},{"dx":693,"dy":-93,"t":10296},{"dx":600,"dy":-63,"t":10332},{"dx":411,"dy":-57,"t":10387},{"dx":298,"dy":-76,"t":10422},{"dx":121,"dy":-86,"t":10477},{"dx":44,"dy":-88,"t":10513},{"dx":-88,"dy":-94,"t":10570},{"dx":-111,"dy":-106,"t":10604},{"dx":-176,"dy":-146,"t":10661},{"dx":-181,"dy":-165,"t":10695},{"dx":-170,"dy":-220,"t":10749},{"dx":-172,"dy":-204,"t":10785},{"dx":-124,"dy":-218,"t":10842},{"dx":-113,"dy":-237,"t":10876},{"dx":-128,"dy":-243,"t":10932},{"dx":-120,"dy":-237,"t":10967},{"dx":63,"dy":-227,"t":11021},{"dx":201,"dy":-261,"t":11055},{"dx":361,"dy":-251,"t":11111},{"dx":478,"dy":-238,"t":11146},{"dx":548,"dy":-191,"t":11208},{"dx":530,"dy":-173,"t":11246},{"dx":357,"dy":-128,"t":11304},{"dx":234,"dy":-112,"t":11337},{"dx":30,"dy":-58,"t":11392},{"dx":-17,"dy":-30,"t":11426},{"dx":-43,"dy":-55,"t":11481},{"dx":-86,"dy":-67,"t":11517},{"dx":-58,"dy":-97,"t":11572},{"dx":-49,"dy":-90,"t":11610},{"dx":-108,"dy":-122,"t":11667},{"dx":-153,"dy":-122,"t":11703},{"dx":-152,"dy":-170,"t":11758},{"dx":-148,"dy":-185,"t":11791},{"dx":-179,"dy":-183,"t":11847},{"dx":-158,"dy":-175,"t":11883},{"dx":-144,"dy":-156,"t":11943},{"dx":-104,"dy":-123,"t":11978},{"dx":-122,"dy":-23,"t":12034},{"dx":-130,"dy":33,"t":12070},{"dx":-186,"dy":6,"t":12127},{"dx":-212,"dy":-15,"t":12146}],[{"dx":-131,"dy":-141,"t":13153},{"dx":-106,"dy":-76,"t":13239},{"dx":-67,"dy":-61,"t":13273},{"dx":-16,"dy":6,"t":13329},{"dx":-3,"dy":21,"t":13363},{"dx":24,"dy":36,"t":13419},{"dx":37,"dy":36,"t":13454},{"dx":108,"dy":45,"t":13510},{"dx":168,"dy":47,"t":13545},{"dx":278,"dy":73,"t":13601},{"dx":324,"dy":116,"t":13637},{"dx":293,"dy":108,"t":13695},{"dx":281,"dy":135,"t":13729},{"dx":217,"dy":138,"t":13785},{"dx":186,"dy":109,"t":13820},{"dx":48,"dy":65,"t":13876},{"dx":62,"dy":-5,"t":13912},{"dx":-37,"dy":-60,"t":13968},{"dx":-83,"dy":-62,"t":14005},{"dx":-169,"dy":-60,"t":14060},{"dx":-251,"dy":-49,"t":14093},{"dx":-275,"dy":-54,"t":14147},{"dx":-244,"dy":-50,"t":14183},{"dx":-242,"dy":-54,"t":14243},{"dx":-263,"dy":-61,"t":14280},{"dx":-211,"dy":-98,"t":14337},{"dx":-162,"dy":-120,"t":14372},{"dx":-121,"dy":-123,"t":14428},{"dx":-108,"dy":-103,"t":14463},{"dx":-98,"dy":-136,"t":14519},{"dx":-123,"dy":-136,"t":14553},{"dx":-192,"dy":-62,"t":14610},{"dx":-195,"dy":-29,"t":14658},{"dx":-242,"dy":-43,"t":14770},{"dx":-275,"dy":-50,"t":14809},{"dx":-215,"dy":-44,"t":14866},{"dx":-186,"dy":-58,"t":14904},{"dx":-140,"dy":-113,"t":14960},{"dx":-97,"dy":-160,"t":14997},{"dx":-64,"dy":-154,"t":15053},{"dx":-63,"dy":-155,"t":15090},{"dx":-67,"dy":-147,"t":15158},{"dx":-79,"dy":-121,"t":15174}],[{"dx":204,"dy":-9,"t":16161},{"dx":183,"dy":-21,"t":16246},{"dx":145,"dy":-33,"t":16282},{"dx":168,"dy":-59,"t":16340},{"dx":201,"dy":-63,"t":16377},{"dx":220,"dy":-4,"t":16433},{"dx":216,"dy":46,"t":16468},{"dx":254,"dy":40,"t":16523},{"dx":273,"dy":36,"t":16558},{"dx":275,"dy":39,"t":16618},{"dx":262,"dy":46,"t":16653},{"dx":221,"dy":39,"t":16710},{"dx":196,"dy":29,"t":16744},{"dx":194,"dy":28,"t":16799},{"dx":156,"dy":-3,"t":16835},{"dx":157,"dy":-16,"t":16890},{"dx":174,"dy":-16,"t":16925},{"dx":314,"dy":-57,"t":16980},{"dx":362,"dy":-63,"t":17019},{"dx":335,"dy":-39,"t":17080},{"dx":335,"dy":38,"t":17116},{"dx":238,"dy":90,"t":17173},{"dx":176,"dy":133,"t":17211},{"dx":78,"dy":156,"t":17271},{"dx":30,"dy":155,"t":17309},{"dx":-32,"dy":163,"t":17366},{"dx":-50,"dy":170,"t":17401},{"dx":-55,"dy":233,"t":17455},{"dx":-40,"dy":270,"t":17492},{"dx":34,"dy":278,"t":17546},{"dx":85,"dy":258,"t":17586},{"dx":157,"dy":241,"t":17642},{"dx":118,"dy":245,"t":17678},{"dx":80,"dy":198,"t":17733},{"dx":83,"dy":175,"t":17765},{"dx":45,"dy":117,"t":17819},{"dx":72,"dy":84,"t":17855},{"dx":107,"dy":5,"t":17911},{"dx":126,"dy":-17,"t":17950},{"dx":129,"dy":-70,"t":18007},{"dx":133,"dy":-94,"t":18045},{"dx":127,"dy":-114,"t":18103},{"dx":123,"dy":-113,"t":18141},{"dx":134,"dy":-94,"t":18176}],[{"dx":-375,"dy":-224,"t":19194},{"dx":-376,"dy":-223,"t":19230},{"dx":-310,"dy":-158,"t":19284},{"dx":-253,"dy":-112,"t":19318},{"dx":-88,"dy":-112,"t":19374},{"dx":26,"dy":-117,"t":19409},{"dx":7,"dy":-126,"t":19466},{"dx":-94,"dy":-129,"t":19505},{"dx":-242,"dy":-165,"t":19561},{"dx":-281,"dy":-189,"t":19598},{"dx":-316,"dy":-217,"t":19653},{"dx":-324,"dy":-224,"t":19690},{"dx":-308,"dy":-220,"t":19747},{"dx":-250,"dy":-212,"t":19784},{"dx":-231,"dy":-154,"t":19845},{"dx":-340,"dy":-119,"t":19881},{"dx":-361,"dy":-188,"t":19936},{"dx":-375,"dy":-248,"t":19971},{"dx":-339,"dy":-300,"t":20028},{"dx":-355,"dy":-306,"t":20061},{"dx":-382,"dy":-278,"t":20115},{"dx":-407,"dy":-268,"t":20150},{"dx":-444,"dy":-261,"t":20208},{"dx":-440,"dy":-278,"t":20246},{"dx":-399,"dy":-288,"t":20302},{"dx":-364,"dy":-280,"t":20337},{"dx":-364,"dy":-289,"t":20390},{"dx":-372,"dy":-310,"t":20426},{"dx":-271,"dy":-271,"t":20482},{"dx":-270,"dy":-271,"t":20519},{"dx":-297,"dy":-254,"t":20576},{"dx":-315,"dy":-223,"t":20614},{"dx":-365,"dy":-218,"t":20669},{"dx":-353,"dy":-225,"t":20707},{"dx":-294,"dy":-232,"t":20769},{"dx":-264,"dy":-242,"t":20803},{"dx":-264,"dy":-251,"t":20858},{"dx":-275,"dy":-243,"t":20892},{"dx":-304,"dy":-219,"t":20960},{"dx":-320,"dy":-204,"t":21050},{"dx":-328,"dy":-220,"t":21109},{"dx":-331,"dy":-234,"t":21154},{"dx":-255,"dy":-285,"t":21187}],[{"dx":-10,"dy":-55,"t":22194},{"dx":-18,"dy":-37,"t":22251},{"dx":-40,"dy":-9,"t":22284},{"dx":-25,"dy":1,"t":22342},{"dx":-39,"dy":-9,"t":22381},{"dx":-57,"dy":-21,"t":22438},{"dx":-61,"dy":-23,"t":22474},{"dx":-97,"dy":-7,"t":22530},{"dx":-141,"dy":-1,"t":22568},{"dx":-144,"dy":3,"t":22623},{"dx":-108,"dy":-2,"t":22656},{"dx":-60,"dy":-6,"t":22711},{"dx":-47,"dy":-5,"t":22747},{"dx":81,"dy":-74,"t":22803},{"dx":133,"dy":-91,"t":22838},{"dx":104,"dy":-43,"t":22893},{"dx":67,"dy":-1,"t":22927},{"dx":105,"dy":2,"t":22981},{"dx":145,