[{"rt":55704.404999967664,"stimulus":"\n      <p>You can elect whether to include your data in our research dataset.</p>\n    ","response":0,"question":"consent","trial_type":"html-button-response","trial_index":0,"time_elapsed":55709,"internal_node_id":"0.0-0.0","user_agent":"Mozilla/5.0 (Macintosh; Intel Mac OS X 10_14_6) AppleWebKit/537.36 (KHTML, like Gecko) Chrome/88.0.4324.192 Safari/537.36","screen_width_px":1440,"screen_height_px":900},{"rt":1327.6700000278652,"stimulus":"\n      <p>This experiment uses your camera for eye tracking.</p>\n      <p>No video is saved from this experiment. The only data recorded are predictions about where you are looking.</p>\n      <p>Before we begin, there are a few things to do that can improve the accuracy of the eye tracking.</p>\n    ","response":0,"trial_type":"html-button-response","trial_index":1,"time_elapsed":57040,"internal_node_id":"0.0-1.0","user_agent":"Mozilla/5.0 (Macintosh; Intel Mac OS X 10_14_6) AppleWebKit/537.36 (KHTML, like Gecko) Chrome/88.0.4324.192 Safari/537.36","screen_width_px":1440,"screen_height_px":900},{"rt":2055.335000040941,"stimulus":"\n      <p>If you wear glasses and can complete the task without them, please remove your glasses.</p>\n    ","response":0,"trial_type":"html-button-response","trial_index":2,"time_elapsed":59096,"internal_node_id":"0.0-2.0","user_agent":"Mozilla/5.0 (Macintosh; Intel Mac OS X 10_14_6) AppleWebKit/537.36 (KHTML, like Gecko) Chrome/88.0.4324.192 Safari/537.36","screen_width_px":1440,"screen_height_px":900},{"rt":4005.2450000075623,"stimulus":"\n      <p>Please close additional browser tabs and apps running in the background.<br>The eye tracker works best when there are fewer things running at the same time.</p>\n    ","response":0,"trial_type":"html-button-response","trial_index":3,"time_elapsed":63102,"internal_node_id":"0.0-3.0","user_agent":"Mozilla/5.0 (Macintosh; Intel Mac OS X 10_14_6) AppleWebKit/537.36 (KHTML, like Gecko) Chrome/88.0.4324.192 Safari/537.36","screen_width_px":1440,"screen_height_px":900},{"rt":2448.3900000341237,"stimulus":"\n      <p>Try to avoid bright lights behind you.<br>The eye tracker works best if your face is well lit from the front.<br>If you can, adjust the lighting in your room.</p>\n    ","response":0,"trial_type":"html-button-response","trial_index":4,"time_elapsed":65551,"internal_node_id":"0.0-4.0","user_agent":"Mozilla/5.0 (Macintosh; Intel Mac OS X 10_14_6) AppleWebKit/537.36 (KHTML, like Gecko) Chrome/88.0.4324.192 Safari/537.36","screen_width_px":1440,"screen_height_px":900},{"rt":2366.180000011809,"stimulus":"\n      <p>In order to participate you must allow the experiment to use your camera.</p>\n      <p>You will be prompted to do this on the next screen.</p>\n    ","response":0,"trial_type":"html-button-response","trial_index":5,"time_elapsed":67918,"internal_node_id":"0.0-5.0","user_agent":"Mozilla/5.0 (Macintosh; Intel Mac OS X 10_14_6) AppleWebKit/537.36 (KHTML, like Gecko) Chrome/88.0.4324.192 Safari/537.36","screen_width_px":1440,"screen_height_px":900},{"trial_type":"webgazer-init-camera","trial_index":6,"time_elapsed":82392,"internal_node_id":"0.0-6.0","user_agent":"Mozilla/5.0 (Macintosh; Intel Mac OS X 10_14_6) AppleWebKit/537.36 (KHTML, like Gecko) Chrome/88.0.4324.192 Safari/537.36","screen_width_px":1440,"screen_height_px":900},{"rt":2243.560000031721,"stimulus":"\n      <p>Now you'll complete a series of calibrations and validations.</p>\n      <p>The calibration will be reset after each round, so it is OK to move a little bit<br>in between the end of a validation and the start of the next calibration.</p>\n      <p>Please keep your head still during each round.</p>\n    ","response":0,"trial_type":"html-button-response","trial_index":7,"time_elapsed":84637,"internal_node_id":"0.0-7.0","user_agent":"Mozilla/5.0 (Macintosh; Intel Mac OS X 10_14_6) AppleWebKit/537.36 (KHTML, like Gecko) Chrome/88.0.4324.192 Safari/537.36","screen_width_px":1440,"screen_height_px":900},{"success":true,"trial_type":"fullscreen","trial_index":8,"time_elapsed":88085,"internal_node_id":"0.0-8.0","user_agent":"Mozilla/5.0 (Macintosh; Intel Mac OS X 10_14_6) AppleWebKit/537.36 (KHTML, like Gecko) Chrome/88.0.4324.192 Safari/537.36","screen_width_px":1440,"screen_height_px":900},{"rt":3379.2750000138767,"stimulus":"\n      <p>During the calibration phase, please look at each dot and click on it.</p>\n      <p>During the validation phase, just look at each dot while it is on the screen.</p>\n    ","response":0,"trial_type":"html-button-response","trial_index":9,"time_elapsed":91467,"internal_node_id":"0.0-9.0","user_agent":"Mozilla/5.0 (Macintosh; Intel Mac OS X 10_14_6) AppleWebKit/537.36 (KHTML, like Gecko) Chrome/88.0.4324.192 Safari/537.36","screen_width_px":1440,"screen_height_px":900},{"rt":1442.174999974668,"stimulus":"\n      <p>Calibration phase next.</p>\n      <p>Click on the dots.</p>\n    ","response":0,"trial_type":"html-button-response","trial_index":10,"time_elapsed":92910,"internal_node_id":"0.0-10.0-0.0","user_agent":"Mozilla/5.0 (Macintosh; Intel Mac OS X 10_14_6) AppleWebKit/537.36 (KHTML, like Gecko) Chrome/88.0.4324.192 Safari/537.36","screen_width_px":1440,"screen_height_px":900},{"trial_type":"webgazer-calibrate","trial_index":11,"time_elapsed":115653,"internal_node_id":"0.0-10.0-1.0","user_agent":"Mozilla/5.0 (Macintosh; Intel Mac OS X 10_14_6) AppleWebKit/537.36 (KHTML, like Gecko) Chrome/88.0.4324.192 Safari/537.36","screen_width_px":1440,"screen_height_px":900},{"rt":1122.7499999804422,"stimulus":"\n      <p>Validation phase next.</p>\n      <p>Look at the dots.</p>\n    ","response":0,"trial_type":"html-button-response","trial_index":12,"time_elapsed":116778,"internal_node_id":"0.0-10.0-2.0","user_agent":"Mozilla/5.0 (Macintosh; Intel Mac OS X 10_14_6) AppleWebKit/537.36 (KHTML, like Gecko) Chrome/88.0.4324.192 Safari/537.36","screen_width_px":1440,"screen_height_px":900},{"raw_gaze":[[{"dx":43,"dy":-35,"t":1139},{"dx":31,"dy":-27,"t":1181},{"dx":-7,"dy":-2,"t":1251},{"dx":-32,"dy":10,"t":1291},{"dx":-69,"dy":-3,"t":1353},{"dx":-61,"dy":-9,"t":1391},{"dx":-89,"dy":-2,"t":1454},{"dx":-98,"dy":1,"t":1494},{"dx":-86,"dy":-8,"t":1570},{"dx":-74,"dy":-13,"t":1617},{"dx":-54,"dy":-18,"t":1686},{"dx":-45,"dy":-20,"t":1722},{"dx":-67,"dy":-4,"t":1788},{"dx":-79,"dy":6,"t":1826},{"dx":-110,"dy":17,"t":1888},{"dx":-127,"dy":19,"t":1926},{"dx":-86,"dy":14,"t":1994},{"dx":-74,"dy":9,"t":2045},{"dx":-48,"dy":-3,"t":2112},{"dx":-36,"dy":-8,"t":2157},{"dx":-44,"dy":17,"t":2219},{"dx":-37,"dy":30,"t":2262},{"dx":-25,"dy":27,"t":2348},{"dx":-24,"dy":27,"t":2384},{"dx":-31,"dy":33,"t":2449},{"dx":-41,"dy":41,"t":2489},{"dx":-56,"dy":28,"t":2586},{"dx":-65,"dy":18,"t":2654},{"dx":-63,"dy":39,"t":2769},{"dx":-76,"dy":61,"t":2838},{"dx":-42,"dy":64,"t":2954},{"dx":-36,"dy":113,"t":3123},{"dx":-58,"dy":96,"t":3239},{"dx":-76,"dy":85,"t":3269}],[{"dx":-81,"dy":71,"t":4281},{"dx":-97,"dy":62,"t":4326},{"dx":-128,"dy":75,"t":4417},{"dx":-126,"dy":81,"t":4481},{"dx":-123,"dy":94,"t":4571},{"dx":-97,"dy":95,"t":4614},{"dx":-59,"dy":84,"t":4704},{"dx":-35,"dy":69,"t":4751},{"dx":-12,"dy":56,"t":4834},{"dx":10,"dy":54,"t":4871},{"dx":59,"dy":50,"t":4933},{"dx":76,"dy":48,"t":4969},{"dx":106,"dy":56,"t":5034},{"dx":100,"dy":63,"t":5072},{"dx":100,"dy":62,"t":5136},{"dx":105,"dy":57,"t":5175},{"dx":79,"dy":23,"t":5235},{"dx":81,"dy":25,"t":5274},{"dx":83,"dy":18,"t":5339},{"dx":88,"dy":-3,"t":5377},{"dx":88,"dy":-17,"t":5445},{"dx":84,"dy":-20,"t":5529},{"dx":76,"dy":-24,"t":5596},{"dx":60,"dy":-25,"t":5635},{"dx":38,"dy":-44,"t":5695},{"dx":27,"dy":-47,"t":5732},{"dx":38,"dy":-36,"t":5794},{"dx":50,"dy":-30,"t":5833},{"dx":285,"dy":44,"t":5894},{"dx":476,"dy":102,"t":5935},{"dx":576,"dy":189,"t":5997},{"dx":559,"dy":202,"t":6040},{"dx":391,"dy":176,"t":6103},{"dx":310,"dy":155,"t":6139},{"dx":187,"dy":100,"t":6208},{"dx":143,"dy":68,"t":6222}],[{"dx":38,"dy":116.5,"t":7282},{"dx":29,"dy":107.5,"t":7282},{"dx":23,"dy":100.5,"t":7321},{"dx":5,"dy":94.5,"t":7386},{"dx":7,"dy":97.5,"t":7424},{"dx":13,"dy":51.5,"t":7489},{"dx":19,"dy":38.5,"t":7529},{"dx":-11,"dy":39.5,"t":7589},{"dx":-41,"dy":50.5,"t":7626},{"dx":-43,"dy":62.5,"t":7691},{"dx":-33,"dy":61.5,"t":7732},{"dx":-65,"dy":66.5,"t":7794},{"dx":-78,"dy":72.5,"t":7831},{"dx":-53,"dy":68.5,"t":7894},{"dx":-45,"dy":69.5,"t":7930},{"dx":-14,"dy":63.5,"t":7992},{"dx":3,"dy":56.5,"t":8037},{"dx":47,"dy":60.5,"t":8098},{"dx":76,"dy":65.5,"t":8134},{"dx":99,"dy":78.5,"t":8196},{"dx":86,"dy":78.5,"t":8231},{"dx":45,"dy":95.5,"t":8297},{"dx":34,"dy":79.5,"t":8333},{"dx":-3,"dy":62.5,"t":8399},{"dx":-16,"dy":82.5,"t":8439},{"dx":-29,"dy":106.5,"t":8505},{"dx":-43,"dy":100.5,"t":8544},{"dx":-6,"dy":101.5,"t":8614},{"dx":5,"dy":93.5,"t":8655},{"dx":20,"dy":77.5,"t":8724},{"dx":26,"dy":69.5,"t":8768},{"dx":31,"dy":70.5,"t":8832},{"dx":31,"dy":77.5,"t":8874},{"dx":43,"dy":80.5,"t":8948},{"dx":56,"dy":79.5,"t":8994},{"dx":24,"dy":76.5,"t":9066},{"dx":6,"dy":70.5,"t":9103},{"dx":-3,"dy":71.5,"t":9167},{"dx":-12,"dy":72.5,"t":9212},{"dx":-24,"dy":77.5,"t":9257}],[{"dx":-73,"dy":62.5,"t":10322},{"dx":-84,"dy":77.5,"t":10322},{"dx":-94,"dy":90.5,"t":10362},{"dx":78,"dy":234.5,"t":10427},{"dx":183,"dy":350.5,"t":10472},{"dx":196,"dy":464.5,"t":10539},{"dx":182,"dy":471.5,"t":10579},{"dx":99,"dy":396.5,"t":10656},{"dx":44,"dy":310.5,"t":10698},{"dx":-52,"dy":237.5,"t":10761},{"dx":-89,"dy":206.5,"t":10802},{"dx":-51,"dy":115.5,"t":10872},{"dx":-64,"dy":60.5,"t":10912},{"dx":-43,"dy":-10.5,"t":10976},{"dx":-40,"dy":-24.5,"t":11018},{"dx":-7,"dy":-32.5,"t":11078},{"dx":5,"dy":-40.5,"t":11117},{"dx":2,"dy":-52.5,"t":11183},{"dx":-9,"dy":-57.5,"t":11221},{"dx":-62,"dy":-70.5,"t":11321},{"dx":-121,"dy":-54.5,"t":11367},{"dx":-185,"dy":-16.5,"t":11432},{"dx":-160,"dy":-1.5,"t":11470},{"dx":-116,"dy":6.5,"t":11540},{"dx":-82,"dy":24.5,"t":11579},{"dx":-85,"dy":10.5,"t":11646},{"dx":-94,"dy":0.5,"t":11685},{"dx":-54,"dy":13.5,"t":11758},{"dx":-57,"dy":18.5,"t":11817},{"dx":-68,"dy":16.5,"t":11968},{"dx":-60,"dy":9.5,"t":12015},{"dx":-58,"dy":1.5,"t":12088},{"dx":-65,"dy":6.5,"t":12133},{"dx":-78,"dy":0.5,"t":12221},{"dx":-80,"dy":-2.5,"t":12317},{"dx":-103,"dy":5.5,"t":12360}],[{"dx":127,"dy":339,"t":13348},{"dx":142,"dy":406,"t":13387},{"dx":126,"dy":410,"t":13454},{"dx":91,"dy":343,"t":13492},{"dx":1,"dy":280,"t":13557},{"dx":-12,"dy":247,"t":13597},{"dx":-82,"dy":169,"t":13664},{"dx":-97,"dy":134,"t":13702},{"dx":-63,"dy":85,"t":13775},{"dx":-30,"dy":66,"t":13815},{"dx":-87,"dy":34,"t":13886},{"dx":-78,"dy":37,"t":13927},{"dx":-117,"dy":35,"t":13992},{"dx":-122,"dy":32,"t":14029},{"dx":-131,"dy":38,"t":14120},{"dx":-148,"dy":46,"t":14161},{"dx":-98,"dy":73,"t":14232},{"dx":-72,"dy":80,"t":14274},{"dx":-57,"dy":88,"t":14341},{"dx":-88,"dy":85,"t":14378},{"dx":-85,"dy":68,"t":14444},{"dx":-78,"dy":35,"t":14480},{"dx":-88,"dy":-1,"t":14548},{"dx":-98,"dy":-5,"t":14587},{"dx":-75,"dy":57,"t":14650},{"dx":-40,"dy":56,"t":14688},{"dx":-5,"dy":79,"t":14754},{"dx":19,"dy":75,"t":14792},{"dx":-36,"dy":42,"t":14859},{"dx":-55,"dy":31,"t":14899},{"dx":-44,"dy":32,"t":14970},{"dx":-59,"dy":34,"t":15009},{"dx":-60,"dy":24,"t":15073},{"dx":-51,"dy":17,"t":15111},{"dx":-46,"dy":13,"t":15175},{"dx":-22,"dy":11,"t":15213},{"dx":-65,"dy":-17,"t":15276},{"dx":-59,"dy":-10,"t":15319},{"dx":-99,"dy":10,"t":15363}],[{"dx":503,"dy":230,"t":16401},{"dx":449,"dy":227,"t":16438},{"dx":364,"dy":191,"t":16501},{"dx":336,"dy":172,"t":16539},{"dx":288,"dy":144,"t":16601},{"dx":240,"dy":136,"t":16639},{"dx":174,"dy":124,"t":16704},{"dx":158,"dy":118,"t":16741},{"dx":121,"dy":99,"t":16801},{"dx":102,"dy":88,"t":16839},{"dx":108,"dy":64,"t":16904},{"dx":108,"dy":50,"t":16941},{"dx":138,"dy":47,"t":17013},{"dx":162,"dy":56,"t":17054},{"dx":161,"dy":61,"t":17123},{"dx":141,"dy":59,"t":17163},{"dx":136,"dy":57,"t":17233},{"dx":153,"dy":50,"t":17273},{"dx":183,"dy":72,"t":17335},{"dx":195,"dy":97,"t":17375},{"dx":165,"dy":69,"t":17437},{"dx":151,"dy":67,"t":17471},{"dx":183,"dy":88,"t":17531},{"dx":197,"dy":98,"t":17570},{"dx":176,"dy":62,"t":17638},{"dx":178,"dy":51,"t":17674},{"dx":210,"dy":62,"t":17735},{"dx":224,"dy":68,"t":17771},{"dx":221,"dy":28,"t":17836},{"dx":244,"dy":12,"t":17872},{"dx":259,"dy":50,"t":17935},{"dx":249,"dy":63,"t":17971},{"dx":233,"dy":64,"t":18034},{"dx":238,"dy":61,"t":18073},{"dx":218,"dy":68,"t":18141},{"dx":220,"dy":77,"t":18181},{"dx":228,"dy":81,"t":18242},{"dx":235,"dy":67,"t":18281},{"dx":212,"dy":83,"t":18349},{"dx":201,"dy":90,"t":18366}],[{"dx":-15,"dy":-6.5,"t":19365},{"dx":53,"dy":105.5,"t":19463},{"dx":86,"dy":186.5,"t":19500},{"dx":61,"dy":265.5,"t":19562},{"dx":39,"dy":258.5,"t":19599},{"dx":-13,"dy":216.5,"t":19666},{"dx":-36,"dy":192.5,"t":19703},{"dx":-12,"dy":130.5,"t":19765},{"dx":15,"dy":108.5,"t":19801},{"dx":-8,"dy":71.5,"t":19864},{"dx":-28,"dy":56.5,"t":19901},{"dx":21,"dy":45.5,"t":19962},{"dx":22,"dy":39.5,"t":20001},{"dx":42,"dy":22.5,"t":20062},{"dx":46,"dy":16.5,"t":20098},{"dx":10,"dy":14.5,"t":20162},{"dx":2,"dy":18.5,"t":20199},{"dx":4,"dy":19.5,"t":20260},{"dx":12,"dy":17.5,"t":20299},{"dx":13,"dy":9.5,"t":20363},{"dx":-5,"dy":9.5,"t":20404},{"dx":2,"dy":27.5,"t":20469},{"dx":11,"dy":43.5,"t":20507},{"dx":5,"dy":40.5,"t":20569},{"dx":15,"dy":32.5,"t":20608},{"dx":-5,"dy":42.5,"t":20671},{"dx":-4,"dy":49.5,"t":20707},{"dx":-4,"dy":35.5,"t":20773},{"dx":-13,"dy":21.5,"t":20812},{"dx":-13,"dy":27.5,"t":20878},{"dx":-24,"dy":30.5,"t":20914},{"dx":-43,"dy":8.5,"t":20980},{"dx":-52,"dy":-12.5,"t":21019},{"dx":-8,"dy":-43.5,"t":21086},{"dx":0,"dy":-56.5,"t":21124},{"dx":27,"dy":-12.5,"t":21194},{"dx":32,"dy":14.5,"t":21230},{"dx":60,"dy":53.5,"t":21294},{"dx":44,"dy":63.5,"t":21334},{"dx":-4,"dy":65.5,"t":21375}],[{"dx":2,"dy":318,"t":22397},{"dx":-58,"dy":261,"t":22432},{"dx":-114,"dy":151,"t":22492},{"dx":-148,"dy":97,"t":22529},{"dx":-198,"dy":18,"t":22589},{"dx":-203,"dy":-21,"t":22625},{"dx":-130,"dy":-38,"t":22685},{"dx":-108,"dy":-50,"t":22723},{"dx":-80,"dy":-50,"t":22788},{"dx":-83,"dy":-45,"t":22826},{"dx":-59,"dy":-46,"t":22887},{"dx":-33,"dy":-36,"t":22926},{"dx":18,"dy":-14,"t":22989},{"dx":40,"dy":-1,"t":23025},{"dx":6,"dy":17,"t":23087},{"dx":-8,"dy":31,"t":23129},{"dx":-27,"dy":38,"t":23196},{"dx":-34,"dy":43,"t":23233},{"dx":-56,"dy":60,"t":23294},{"dx":-69,"dy":65,"t":23332},{"dx":-78,"dy":45,"t":23396},{"dx":-83,"dy":37,"t":23436},{"dx":-109,"dy":35,"t":23505},{"dx":-127,"dy":36,"t":23545},{"dx":-147,"dy":32,"t":23615},{"dx":-151,"dy":27,"t":23657},{"dx":-72,"dy":22,"t":23720},{"dx":-83,"dy":24,"t":23755},{"dx":-22,"dy":42,"t":23821},{"dx":8,"dy":50,"t":23858},{"dx":28,"dy":51,"t":23921},{"dx":34,"dy":52,"t":23956},{"dx":40,"dy":61,"t":24016},{"dx":36,"dy":60,"t":24053},{"dx":43,"dy":72,"t":24116},{"dx":47,"dy":76,"t":24154},{"dx":36,"dy":54,"t":24216},{"dx":22,"dy":38,"t":24255},{"dx":5,"dy":22,"t":24316},{"dx":0,"dy":20,"t":24356},{"dx":25,"dy":53,"t":24396}],[{"dx":84,"dy":126.5,"t":25453},{"dx":203,"dy":242.5,"t":25453},{"dx":300,"dy":338.5,"t":25486},{"dx":238,"dy":443.5,"t":25547},{"dx":232,"dy":465.5,"t":25586},{"dx":70,"dy":455.5,"t":25646},{"dx":42,"dy":419.5,"t":25687},{"dx":1,"dy":341.5,"t":25748},{"dx":20,"dy":291.5,"t":25785},{"dx":-1,"dy":229.5,"t":25848},{"dx":-22,"dy":203.5,"t":25886},{"dx":-22,"dy":170.5,"t":25948},{"dx":-31,"dy":137.5,"t":25988},{"dx":-41,"dy":99.5,"t":26047},{"dx":-31,"dy":86.5,"t":26093},{"dx":-19,"dy":69.5,"t":26170},{"dx":-21,"dy":63.5,"t":26210},{"dx":-87,"dy":21.5,"t":26277},{"dx":-104,"dy":8.5,"t":26312},{"dx":-100,"dy":9.5,"t":26378},{"dx":-112,"dy":-2.5,"t":26416},{"dx":-129,"dy":1.5,"t":26478},{"dx":-128,"dy":21.5,"t":26514},{"dx":-112,"dy":37.5,"t":26577},{"dx":-84,"dy":42.5,"t":26614},{"dx":-127,"dy":19.5,"t":26677},{"dx":-146,"dy":13.5,"t":26713},{"dx":-115,"dy":15.5,"t":26775},{"dx":-95,"dy":17.5,"t":26814},{"dx":-101,"dy":38.5,"t":26876},{"dx":-94,"dy":74.5,"t":26917},{"dx":-72,"dy":45.5,"t":26980},{"dx":-50,"dy":33.5,"t":27014},{"dx":-12,"dy":21.5,"t":27076},{"dx":-3,"dy":16.5,"t":27128},{"dx":-22,"dy":43.5,"t":27192},{"dx":8,"dy":54.5,"t":27231},{"dx":-17,"dy":70.5,"t":27299},{"dx":-17,"dy":67.5,"t":27338},{"dx":-48,"dy":26.5,"t":27412},{"dx":-61,"dy":11.5,"t":27431}],[{"dx":-198,"dy":101,"t":28461},{"dx":-200,"dy":83,"t":28499},{"dx":-127,"dy":100,"t":28565},{"dx":-77,"dy":130,"t":28605},{"dx":-93,"dy":191,"t":28672},{"dx":-149,"dy":222,"t":28709},{"dx":-231,"dy":194,"t":28772},{"dx":-280,"dy":175,"t":28810},{"dx":-369,"dy":127,"t":28872},{"dx":-423,"dy":99,"t":28914},{"dx":-419,"dy":90,"t":28975},{"dx":-407,"dy":86,"t":29012},{"dx":-447,"dy":90,"t":29073},{"dx":-446,"dy":81,"t":29110},{"dx":-468,"dy":80,"t":29179},{"dx":-471,"dy":80,"t":29223},{"dx":-446,"dy":82,"t":29297},{"dx":-428,"dy":86,"t":29339},{"dx":-423,"dy":102,"t":29403},{"dx":-389,"dy":103,"t":29445},{"dx":-345,"dy":89,"t":29505},{"dx":-317,"dy":91,"t":29543},{"dx":-261,"dy":94,"t":29604},{"dx":-239,"dy":97,"t":29640},{"dx":-220,"dy":87,"t":29703},{"dx":-213,"dy":86,"t":29742},{"dx":-178,"dy":71,"t":29804},{"dx":-171,"dy":57,"t":29839},{"dx":-229,"dy":60,"t":29903},{"dx":-261,"dy":61,"t":29939},{"dx":-286,"dy":49,"t":30005},{"dx":-296,"dy":31,"t":30042},{"dx":-293,"dy":58,"t":30105},{"dx":-302,"dy":72,"t":30141},{"dx":-302,"dy":75,"t":30205},{"dx":-291,"dy":74,"t":30244},{"dx":-287,"dy":74,"t":30308},{"dx":-296,"dy":65,"t":30344},{"dx":-271,"dy":79,"t":30407},{"dx":-237,"dy":78,"t":30425}],[{"dx":-163,"dy":149,"t":31455},{"dx":-132,"dy":134,"t":31496},{"dx":-94,"dy":135,"t":31566},{"dx":-80,"dy":131,"t":31605},{"dx":-45,"dy":121,"t":31666},{"dx":-26,"dy":116,"t":31702},{"dx":-41,"dy":91,"t":31766},{"dx":-41,"dy":83,"t":31802},{"dx":-69,"dy":71,"t":31867},{"dx":-86,"dy":78,"t":31903},{"dx":-108,"dy":71,"t":31966},{"dx":-102,"dy":63,"t":32003},{"dx":-90,"dy":57,"t":32067},{"dx":-73,"dy":61,"t":32106},{"dx":-15,"dy":55,"t":32169},{"dx":18,"dy":45,"t":32205},{"dx":28,"dy":68,"t":32270},{"dx":30,"dy":80,"t":32310},{"dx":29,"dy":95,"t":32373},{"dx":22,"dy":98,"t":32408},{"dx":-34,"dy":70,"t":32468},{"dx":-42,"dy":61,"t":32504},{"dx":-13,"dy":79,"t":32569},{"dx":-17,"dy":83,"t":32605},{"dx":-26,"dy":84,"t":32671},{"dx":-43,"dy":78,"t":32711},{"dx":-71,"dy":78,"t":32771},{"dx":-59,"dy":68,"t":32809},{"dx":-106,"dy":80,"t":32873},{"dx":-119,"dy":90,"t":32908},{"dx":-122,"dy":79,"t":32969},{"dx":-114,"dy":74,"t":33006},{"dx":-96,"dy":67,"t":33067},{"dx":-63,"dy":83,"t":33104},{"dx":-60,"dy":82,"t":33168},{"dx":-64,"dy":78,"t":33210},{"dx":-67,"dy":85,"t":33277},{"dx":-65,"dy":96,"t":33312},{"dx":-54,"dy":108,"t":33377},{"dx":-19,"dy":108,"t":33418},{"dx":-37,"dy":96,"t":33461}],[{"dx":-20,"dy":257,"t":34531},{"dx":-72,"dy":213,"t":34531},{"dx":-93,"dy":177,"t":34567},{"dx":-105,"dy":160,"t":34628},{"dx":-90,"dy":168,"t":34663},{"dx":-44,"dy":180,"t":34726},{"dx":-2,"dy":193,"t":34763},{"dx":-3,"dy":156,"t":34826},{"dx":-9,"dy":140,"t":34864},{"dx":-55,"dy":105,"t":34927},{"dx":-63,"dy":82,"t":34962},{"dx":-80,"dy":55,"t":35027},{"dx":-66,"dy":67,"t":35064},{"dx":-61,"dy":68,"t":35129},{"dx":-55,"dy":78,"t":35165},{"dx":-53,"dy":86,"t":35228},{"dx":-56,"dy":93,"t":35264},{"dx":-34,"dy":87,"t":35327},{"dx":-7,"dy":86,"t":35361},{"dx":21,"dy":98,"t":35425},{"dx":34,"dy":92,"t":35462},{"dx":126,"dy":112,"t":35524},{"dx":203,"dy":131,"t":35566},{"dx":199,"dy":153,"t":35630},{"dx":176,"dy":153,"t":35666},{"dx":70,"dy":133,"t":35730},{"dx":30,"dy":130,"t":35768},{"dx":-22,"dy":115,"t":35829},{"dx":-43,"dy":105,"t":35865},{"dx":-18,"dy":140,"t":35929},{"dx":-3,"dy":156,"t":35970},{"dx":2,"dy":156,"t":36033},{"dx":-18,"dy":153,"t":36074},{"dx":-24,"dy":170,"t":36143},{"dx":-28,"dy":175,"t":36181},{"dx":-13,"dy":189,"t":36252},{"dx":-3,"dy":198,"t":36290},{"dx":12,"dy":160,"t":36355},{"dx":43,"dy":146,"t":36393},{"dx":21,"dy":157,"t":36459},{"dx":8,"dy":164,"t":36476}],[{"dx":74,"dy":-21,"t":37484},{"dx":77,"dy":-13,"t":37583},{"dx":68,"dy":-14,"t":37623},{"dx":62,"dy":-15,"t":37689},{"dx":46,"dy":-13,"t":37729},{"dx":-6,"dy":4,"t":37792},{"dx":7,"dy":9,"t":37828},{"dx":-40,"dy":20,"t":37889},{"dx":-59,"dy":27,"t":37924},{"dx":-53,"dy":13,"t":37987},{"dx":-57,"dy":0,"t":38023},{"dx":-70,"dy":-2,"t":38084},{"dx":-77,"dy":5,"t":38135},{"dx":-61,"dy":17,"t":38199},{"dx":-42,"dy":26,"t":38236},{"dx":-28,"dy":31,"t":38312},{"dx":-24,"dy":31,"t":38353},{"dx":-13,"dy":25,"t":38417},{"dx":-5,"dy":20,"t":38455},{"dx":2,"dy":16,"t":38517},{"dx":14,"dy":11,"t":38555},{"dx":16,"dy":4,"t":38617},{"dx":10,"dy":-6,"t":38653},{"dx":0,"dy":-8,"t":38718},{"dx":21,"dy":-15,"t":38754},{"dx":6,"dy":-10,"t":38814},{"dx":-5,"dy":-6,"t":38853},{"dx":-21,"dy":10,"t":38922},{"dx":-31,"dy":8,"t":38961},{"dx":-26,"dy":1,"t":39021},{"dx":-24,"dy":4,"t":39061},{"dx":-74,"dy":11,"t":39153},{"dx":-96,"dy":22,"t":39191},{"dx":20,"dy":188,"t":39257},{"dx":89,"dy":327,"t":39297},{"dx":40,"dy":506,"t":39360},{"dx":49,"dy":554,"t":39399}]],"percent_in_roi":[100,75,100,72.22222222222221,76.92307692307693,12.5,87.5,80.48780487804879,70.73170731707317,0,90.2439024390244,41.46341463414634,89.1891891891892],"average_offset":[{"x":-54.1764705882353,"y":17.735294117647058,"r":47.58765956018374},{"x":97.69444444444444,"y":53.69444444444444,"r":154.46807480204183},{"x":6.175,"y":76.15,"r":48.74570103032719},{"x":-37.361111111111114,"y":78.58333333333333,"r":149.79112014779344},{"x":-47.205128205128204,"y":91.74358974358974,"r":70.1281254394147},{"x":211.55,"y":86.275,"r":85.16089384653517},{"x":8.375,"y":55.75,"r":64.52233254122709},{"x":-46.09756097560975,"y":41.63414634146341,"r":81.09838620522734},{"x":-20.146341463414632,"y":119.3780487804878,"r":114.36158827722579},{"x":-294.65,"y":93.75,"r":129.96136367318982},{"x":-56.80487804878049,"y":86.07317073170732,"r":42.948290089988184},{"x":-4.7560975609756095,"y":137.4878048780488,"r":58.34573053160877},{"x":-5.702702702702703,"y":47.75675675675676,"r":57.19654578954625}],"samples_per_sec":"18.96","clicks":15,"pattern":"spread","trial_type":"webgazer-validate","trial_index":13,"time_elapsed":157192,"internal_node_id":"0.0-10.0-3.0","validation_points":[[85,15],[25,75],[37.5,62.5],[37.5,37.5],[50,50],[15,85],[62.5,62.5],[25,25],[62.5,37.5],[85,85],[75,75],[15,15],[75,25]],"user_agent":"Mozilla/5.0 (Macintosh; Intel Mac OS X 10_14_6) AppleWebKit/537.36 (KHTML, like Gecko) Chrome/88.0.4324.192 Safari/537.36","screen_width_px":1440,"screen_height_px":900},{"rt":2635.0649999803863,"stimulus":"\n      <p>Round complete.</p>\n      <p>You can move a little bit, but please try to return you head to the same general location before continuing.</p>\n    ","response":0,"trial_type":"html-button-response","trial_index":14,"time_elapsed":159829,"internal_node_id":"0.0-10.0-4.0","user_agent":"Mozilla/5.0 (Macintosh; Intel Mac OS X 10_14_6) AppleWebKit/537.36 (KHTML, like Gecko) Chrome/88.0.4324.192 Safari/537.36","screen_width_px":1440,"screen_height_px":900},{"trial_type":"webgazer-init-camera","trial_index":15,"time_elapsed":163652,"internal_node_id":"0.0-10.0-5.0","user_agent":"Mozilla/5.0 (Macintosh; Intel Mac OS X 10_14_6) AppleWebKit/537.36 (KHTML, like Gecko) Chrome/88.0.4324.192 Safari/537.36","screen_width_px":1440,"screen_height_px":900},{"rt":1342.7500000107102,"stimulus":"\n      <p>Calibration phase next.</p>\n      <p>Click on the dots.</p>\n    ","response":0,"trial_type":"html-button-response","trial_index":16,"time_elapsed":164996,"internal_node_id":"0.0-10.0-0.1","user_agent":"Mozilla/5.0 (Macintosh; Intel Mac OS X 10_14_6) AppleWebKit/537.36 (KHTML, like Gecko) Chrome/88.0.4324.192 Safari/537.36","screen_width_px":1440,"screen_height_px":900},{"trial_type":"webgazer-calibrate","trial_index":17,"time_elapsed":191978,"internal_node_id":"0.0-10.0-1.1","user_agent":"Mozilla/5.0 (Macintosh; Intel Mac OS X 10_14_6) AppleWebKit/537.36 (KHTML, like Gecko) Chrome/88.0.4324.192 Safari/537.36","screen_width_px":1440,"screen_height_px":900},{"rt":949.3899999652058,"stimulus":"\n      <p>Validation phase next.</p>\n      <p>Look at the dots.</p>\n    ","response":0,"trial_type":"html-button-response","trial_index":18,"time_elapsed":192928,"internal_node_id":"0.0-10.0-2.1","user_agent":"Mozilla/5.0 (Macintosh; Intel Mac OS X 10_14_6) AppleWebKit/537.36 (KHTML, like Gecko) Chrome/88.0.4324.192 Safari/537.36","screen_width_px":1440,"screen_height_px":900},{"raw_gaze":[[{"dx":108,"dy":133,"t":1106},{"dx":60,"dy":232,"t":1171},{"dx":12,"dy":231,"t":1210},{"dx":-8,"dy":243,"t":1274},{"dx":-42,"dy":230,"t":1311},{"dx":-25,"dy":157,"t":1372},{"dx":-17,"dy":112,"t":1409},{"dx":-6,"dy":64,"t":1472},{"dx":-19,"dy":50,"t":1508},{"dx":-19,"dy":21,"t":1572},{"dx":-9,"dy":6,"t":1610},{"dx":5,"dy":-7,"t":1671},{"dx":8,"dy":-7,"t":1707},{"dx":23,"dy":24,"t":1770},{"dx":32,"dy":50,"t":1807},{"dx":0,"dy":55,"t":1870},{"dx":-12,"dy":60,"t":1911},{"dx":-25,"dy":46,"t":1974},{"dx":-19,"dy":37,"t":2013},{"dx":-18,"dy":27,"t":2072},{"dx":-20,"dy":25,"t":2106},{"dx":-19,"dy":31,"t":2175},{"dx":-16,"dy":37,"t":2210},{"dx":-24,"dy":36,"t":2271},{"dx":-40,"dy":33,"t":2312},{"dx":-27,"dy":28,"t":2374},{"dx":3,"dy":19,"t":2414},{"dx":37,"dy":14,"t":2475},{"dx":44,"dy":18,"t":2513},{"dx":42,"dy":29,"t":2573},{"dx":43,"dy":28,"t":2612},{"dx":39,"dy":41,"t":2675},{"dx":34,"dy":53,"t":2713},{"dx":8,"dy":42,"t":2774},{"dx":-4,"dy":29,"t":2810},{"dx":-23,"dy":17,"t":2873},{"dx":-42,"dy":17,"t":2909},{"dx":-29,"dy":22,"t":2971},{"dx":-21,"dy":30,"t":3008},{"dx":-20,"dy":44,"t":3073},{"dx":-25,"dy":49,"t":3089}],[{"dx":-92,"dy":75,"t":4161},{"dx":-101,"dy":70,"t":4161},{"dx":-107,"dy":68,"t":4203},{"dx":-92,"dy":84,"t":4268},{"dx":-89,"dy":98,"t":4306},{"dx":-99,"dy":114,"t":4370},{"dx":-96,"dy":115,"t":4411},{"dx":-65,"dy":123,"t":4483},{"dx":-41,"dy":130,"t":4533},{"dx":2,"dy":100,"t":4654},{"dx":26,"dy":85,"t":4695},{"dx":-4,"dy":82,"t":4761},{"dx":-4,"dy":88,"t":4800},{"dx":-3,"dy":92,"t":4863},{"dx":-11,"dy":79,"t":4900},{"dx":0,"dy":63,"t":4963},{"dx":15,"dy":58,"t":5006},{"dx":46,"dy":72,"t":5086},{"dx":54,"dy":71,"t":5134},{"dx":53,"dy":75,"t":5209},{"dx":45,"dy":79,"t":5251},{"dx":13,"dy":56,"t":5323},{"dx":2,"dy":48,"t":5365},{"dx":0,"dy":65,"t":5429},{"dx":-8,"dy":74,"t":5467},{"dx":-49,"dy":78,"t":5537},{"dx":-71,"dy":79,"t":5578},{"dx":-74,"dy":90,"t":5642},{"dx":-62,"dy":93,"t":5680},{"dx":-61,"dy":95,"t":5743},{"dx":-51,"dy":95,"t":5781},{"dx":-74,"dy":83,"t":5850},{"dx":-85,"dy":73,"t":5890},{"dx":-113,"dy":58,"t":5961},{"dx":-124,"dy":53,"t":5999},{"dx":-106,"dy":57,"t":6065},{"dx":-95,"dy":60,"t":6106},{"dx":-37,"dy":66,"t":6147}],[{"dx":165,"dy":170.5,"t":7184},{"dx":158,"dy":155.5,"t":7227},{"dx":166,"dy":112.5,"t":7292},{"dx":160,"dy":92.5,"t":7329},{"dx":142,"dy":75.5,"t":7392},{"dx":137,"dy":70.5,"t":7430},{"dx":111,"dy":55.5,"t":7494},{"dx":130,"dy":58.5,"t":7535},{"dx":154,"dy":77.5,"t":7599},{"dx":167,"dy":86.5,"t":7636},{"dx":146,"dy":89.5,"t":7699},{"dx":115,"dy":91.5,"t":7735},{"dx":71,"dy":84.5,"t":7796},{"dx":38,"dy":79.5,"t":7831},{"dx":-8,"dy":73.5,"t":7893},{"dx":-9,"dy":68.5,"t":7930},{"dx":24,"dy":63.5,"t":7990},{"dx":45,"dy":49.5,"t":8027},{"dx":99,"dy":46.5,"t":8089},{"dx":99,"dy":44.5,"t":8127},{"dx":119,"dy":45.5,"t":8190},{"dx":141,"dy":47.5,"t":8224},{"dx":167,"dy":37.5,"t":8286},{"dx":172,"dy":35.5,"t":8324},{"dx":149,"dy":33.5,"t":8387},{"dx":143,"dy":33.5,"t":8425},{"dx":174,"dy":25.5,"t":8486},{"dx":209,"dy":26.5,"t":8525},{"dx":170,"dy":15.5,"t":8587},{"dx":190,"dy":11.5,"t":8623},{"dx":147,"dy":13.5,"t":8685},{"dx":139,"dy":11.5,"t":8723},{"dx":137,"dy":9.5,"t":8785},{"dx":141,"dy":8.5,"t":8821},{"dx":116,"dy":0.5,"t":8884},{"dx":119,"dy":4.5,"t":8923},{"dx":32,"dy":2.5,"t":8985},{"dx":43,"dy":-5.5,"t":9021},{"dx":76,"dy":-17.5,"t":9084},{"dx":100,"dy":-8.5,"t":9123},{"dx":140,"dy":-16.5,"t":9160}],[{"dx":148,"dy":-81,"t":10183},{"dx":177,"dy":-59,"t":10219},{"dx":165,"dy":-93,"t":10282},{"dx":149,"dy":-110,"t":10322},{"dx":184,"dy":-138,"t":10384},{"dx":191,"dy":-151,"t":10421},{"dx":100,"dy":18,"t":10485},{"dx":10,"dy":136,"t":10523},{"dx":-29,"dy":259,"t":10585},{"dx":28,"dy":264,"t":10625},{"dx":-2,"dy":212,"t":10688},{"dx":-7,"dy":162,"t":10723},{"dx":-1,"dy":84,"t":10784},{"dx":7,"dy":48,"t":10820},{"dx":142,"dy":-6,"t":10883},{"dx":189,"dy":-37,"t":10919},{"dx":187,"dy":-95,"t":10980},{"dx":173,"dy":-127,"t":11024},{"dx":162,"dy":-151,"t":11088},{"dx":178,"dy":-146,"t":11124},{"dx":220,"dy":-155,"t":11190},{"dx":247,"dy":-153,"t":11227},{"dx":213,"dy":-147,"t":11295},{"dx":203,"dy":-147,"t":11333},{"dx":139,"dy":-147,"t":11399},{"dx":92,"dy":-147,"t":11437},{"dx":25,"dy":-131,"t":11505},{"dx":3,"dy":-118,"t":11544},{"dx":25,"dy":-104,"t":11610},{"dx":28,"dy":-109,"t":11652},{"dx":85,"dy":-129,"t":11714},{"dx":122,"dy":-141,"t":11751},{"dx":111,"dy":-133,"t":11815},{"dx":148,"dy":-119,"t":11866},{"dx":201,"dy":-103,"t":11932},{"dx":219,"dy":-100,"t":11991},{"dx":220,"dy":-78,"t":12055},{"dx":217,"dy":-69,"t":12095},{"dx":179,"dy":-55,"t":12160},{"dx":150,"dy":-51,"t":12176}],[{"dx":32,"dy":-59,"t":13174},{"dx":70,"dy":-56,"t":13273},{"dx":89,"dy":-52,"t":13312},{"dx":97,"dy":-65,"t":13375},{"dx":105,"dy":-68,"t":13413},{"dx":107,"dy":-79,"t":13474},{"dx":105,"dy":-83,"t":13514},{"dx":70,"dy":-94,"t":13577},{"dx":42,"dy":-101,"t":13612},{"dx":17,"dy":-106,"t":13676},{"dx":18,"dy":-106,"t":13712},{"dx":19,"dy":-99,"t":13774},{"dx":14,"dy":-90,"t":13813},{"dx":27,"dy":-69,"t":13874},{"dx":31,"dy":-59,"t":13911},{"dx":53,"dy":-59,"t":13980},{"dx":46,"dy":-68,"t":14017},{"dx":44,"dy":-67,"t":14081},{"dx":44,"dy":-72,"t":14117},{"dx":47,"dy":-78,"t":14180},{"dx":51,"dy":-80,"t":14216},{"dx":57,"dy":-99,"t":14278},{"dx":70,"dy":-111,"t":14316},{"dx":55,"dy":-124,"t":14376},{"dx":40,"dy":-133,"t":14411},{"dx":14,"dy":-136,"t":14472},{"dx":-3,"dy":-140,"t":14509},{"dx":-32,"dy":-171,"t":14573},{"dx":-42,"dy":-185,"t":14614},{"dx":-8,"dy":-197,"t":14687},{"dx":15,"dy":-200,"t":14727},{"dx":32,"dy":-158,"t":14798},{"dx":37,"dy":-141,"t":14839},{"dx":26,"dy":-111,"t":14907},{"dx":33,"dy":-107,"t":14945},{"dx":37,"dy":-87,"t":15015},{"dx":53,"dy":-76,"t":15058},{"dx":43,"dy":-84,"t":15128},{"dx":36,"dy":-98,"t":15169},{"dx":54,"dy":-106,"t":15208}],[{"dx":-23,"dy":32.5,"t":16269},{"dx":-81,"dy":112.5,"t":16269},{"dx":-128,"dy":177.5,"t":16305},{"dx":-165,"dy":194.5,"t":16367},{"dx":-148,"dy":141.5,"t":16404},{"dx":-89,"dy":110.5,"t":16468},{"dx":-43,"dy":61.5,"t":16505},{"dx":68,"dy":29.5,"t":16567},{"dx":90,"dy":11.5,"t":16606},{"dx":123,"dy":-14.5,"t":16668},{"dx":129,"dy":-27.5,"t":16705},{"dx":169,"dy":-7.5,"t":16767},{"dx":187,"dy":1.5,"t":16805},{"dx":219,"dy":-36.5,"t":16874},{"dx":206,"dy":-57.5,"t":16912},{"dx":185,"dy":-102.5,"t":16977},{"dx":185,"dy":-135.5,"t":17013},{"dx":214,"dy":-155.5,"t":17075},{"dx":230,"dy":-164.5,"t":17113},{"dx":217,"dy":-183.5,"t":17173},{"dx":194,"dy":-193.5,"t":17211},{"dx":191,"dy":-133.5,"t":17275},{"dx":208,"dy":-109.5,"t":17315},{"dx":194,"dy":-71.5,"t":17384},{"dx":176,"dy":-54.5,"t":17421},{"dx":146,"dy":-49.5,"t":17486},{"dx":157,"dy":-30.5,"t":17526},{"dx":135,"dy":-70.5,"t":17591},{"dx":118,"dy":-84.5,"t":17628},{"dx":124,"dy":-77.5,"t":17696},{"dx":121,"dy":-87.5,"t":17732},{"dx":167,"dy":-75.5,"t":17798},{"dx":160,"dy":-72.5,"t":17835},{"dx":186,"dy":-48.5,"t":17896},{"dx":186,"dy":-36.5,"t":17936},{"dx":199,"dy":-30.5,"t":18003},{"dx":211,"dy":-33.5,"t":18064},{"dx":224,"dy":-37.5,"t":18132},{"dx":225,"dy":-35.5,"t":18170},{"dx":217,"dy":-40.5,"t":18209}],[{"dx":-19,"dy":3.5,"t":19226},{"dx":-2,"dy":10.5,"t":19266},{"dx":47,"dy":8.5,"t":19330},{"dx":64,"dy":3.5,"t":19374},{"dx":138,"dy":4.5,"t":19438},{"dx":116,"dy":-0.5,"t":19475},{"dx":98,"dy":-14.5,"t":19539},{"dx":122,"dy":-18.5,"t":19576},{"dx":157,"dy":-21.5,"t":19638},{"dx":167,"dy":-14.5,"t":19677},{"dx":173,"dy":-17.5,"t":19742},{"dx":160,"dy":-22.5,"t":19779},{"dx":109,"dy":1.5,"t":19845},{"dx":105,"dy":16.5,"t":19884},{"dx":65,"dy":38.5,"t":19951},{"dx":34,"dy":45.5,"t":19989},{"dx":31,"dy":36.5,"t":20056},{"dx":37,"dy":35.5,"t":20095},{"dx":71,"dy":-0.5,"t":20158},{"dx":102,"dy":-13.5,"t":20196},{"dx":142,"dy":-29.5,"t":20258},{"dx":142,"dy":-35.5,"t":20298},{"dx":122,"dy":-13.5,"t":20360},{"dx":105,"dy":-20.5,"t":20398},{"dx":121,"dy":-1.5,"t":20460},{"dx":117,"dy":17.5,"t":20495},{"dx":117,"dy":13.5,"t":20558},{"dx":105,"dy":1.5,"t":20596},{"dx":100,"dy":-3.5,"t":20657},{"dx":76,"dy":5.5,"t":20694},{"dx":109,"dy":-0.5,"t":20756},{"dx":83,"dy":-6.5,"t":20795},{"dx":59,"dy":-3.5,"t":20858},{"dx":76,"dy":-4.5,"t":20896},{"dx":50,"dy":-10.5,"t":20958},{"dx":62,"dy":-17.5,"t":20995},{"dx":83,"dy":-27.5,"t":21056},{"dx":97,"dy":-19.5,"t":21095},{"dx":85,"dy":-11.5,"t":21155},{"dx":84,"dy":-22.5,"t":21200},{"dx":55,"dy":1.5,"t":21242}],[{"dx":242,"dy":90,"t":22223},{"dx":245,"dy":72,"t":22321},{"dx":246,"dy":64,"t":22365},{"dx":231,"dy":55,"t":22428},{"dx":204,"dy":52,"t":22464},{"dx":170,"dy":39,"t":22526},{"dx":145,"dy":33,"t":22564},{"dx":131,"dy":35,"t":22626},{"dx":126,"dy":39,"t":22664},{"dx":130,"dy":40,"t":22725},{"dx":124,"dy":37,"t":22762},{"dx":82,"dy":40,"t":22825},{"dx":56,"dy":39,"t":22861},{"dx":111,"dy":46,"t":22923},{"dx":139,"dy":54,"t":22957},{"dx":143,"dy":61,"t":23047},{"dx":157,"dy":61,"t":23089},{"dx":182,"dy":61,"t":23152},{"dx":182,"dy":48,"t":23190},{"dx":172,"dy":42,"t":23252},{"dx":188,"dy":46,"t":23290},{"dx":165,"dy":40,"t":23351},{"dx":155,"dy":48,"t":23388},{"dx":163,"dy":56,"t":23451},{"dx":166,"dy":63,"t":23488},{"dx":164,"dy":71,"t":23551},{"dx":151,"dy":72,"t":23589},{"dx":161,"dy":79,"t":23652},{"dx":166,"dy":86,"t":23687},{"dx":145,"dy":95,"t":23753},{"dx":132,"dy":97,"t":23790},{"dx":122,"dy":98,"t":23854},{"dx":101,"dy":102,"t":23891},{"dx":111,"dy":92,"t":23955},{"dx":136,"dy":87,"t":23995},{"dx":173,"dy":88,"t":24058},{"dx":185,"dy":92,"t":24101},{"dx":192,"dy":98,"t":24166},{"dx":171,"dy":91,"t":24210},{"dx":180,"dy":82,"t":24249}],[{"dx":-78,"dy":294.5,"t":25273},{"dx":-65,"dy":268.5,"t":25316},{"dx":7,"dy":196.5,"t":25380},{"dx":57,"dy":156.5,"t":25416},{"dx":133,"dy":71.5,"t":25481},{"dx":160,"dy":37.5,"t":25528},{"dx":209,"dy":-19.5,"t":25651},{"dx":230,"dy":-42.5,"t":25687},{"dx":134,"dy":-39.5,"t":25750},{"dx":71,"dy":-25.5,"t":25787},{"dx":57,"dy":-10.5,"t":25850},{"dx":14,"dy":3.5,"t":25885},{"dx":78,"dy":31.5,"t":25950},{"dx":102,"dy":42.5,"t":25992},{"dx":155,"dy":13.5,"t":26059},{"dx":169,"dy":5.5,"t":26100},{"dx":229,"dy":2.5,"t":26167},{"dx":261,"dy":2.5,"t":26204},{"dx":272,"dy":-2.5,"t":26273},{"dx":263,"dy":-7.5,"t":26314},{"dx":264,"dy":-6.5,"t":26377},{"dx":271,"dy":-2.5,"t":26416},{"dx":271,"dy":5.5,"t":26478},{"dx":266,"dy":8.5,"t":26517},{"dx":314,"dy":-14.5,"t":26578},{"dx":334,"dy":-26.5,"t":26615},{"dx":296,"dy":-18.5,"t":26680},{"dx":282,"dy":-22.5,"t":26715},{"dx":261,"dy":-27.5,"t":26774},{"dx":255,"dy":-24.5,"t":26813},{"dx":261,"dy":-29.5,"t":26880},{"dx":271,"dy":-35.5,"t":26918},{"dx":209,"dy":-31.5,"t":26979},{"dx":176,"dy":-27.5,"t":27015},{"dx":127,"dy":5.5,"t":27078},{"dx":95,"dy":25.5,"t":27115},{"dx":148,"dy":5.5,"t":27176},{"dx":175,"dy":-6.5,"t":27220},{"dx":222,"dy":-27.5,"t":27261}],[{"dx":1,"dy":38,"t":28302},{"dx":1,"dy":30,"t":28344},{"dx":47,"dy":11,"t":28405},{"dx":82,"dy":3,"t":28444},{"dx":87,"dy":-13,"t":28513},{"dx":57,"dy":-17,"t":28551},{"dx":75,"dy":-16,"t":28618},{"dx":94,"dy":-18,"t":28656},{"dx":104,"dy":-37,"t":28729},{"dx":118,"dy":-46,"t":28766},{"dx":142,"dy":-59,"t":28834},{"dx":155,"dy":-60,"t":28874},{"dx":167,"dy":-65,"t":28937},{"dx":181,"dy":-63,"t":28974},{"dx":178,"dy":-65,"t":29037},{"dx":170,"dy":-59,"t":29075},{"dx":154,"dy":-54,"t":29143},{"dx":141,"dy":-57,"t":29189},{"dx":119,"dy":-63,"t":29271},{"dx":115,"dy":-66,"t":29324},{"dx":93,"dy":-77,"t":29411},{"dx":78,"dy":-87,"t":29473},{"dx":112,"dy":-71,"t":29625},{"dx":137,"dy":-62,"t":29731},{"dx":139,"dy":-62,"t":29846},{"dx":136,"dy":-66,"t":29926},{"dx":105,"dy":-81,"t":30026},{"dx":107,"dy":-86,"t":30096},{"dx":118,"dy":-92,"t":30204},{"dx":124,"dy":-87,"t":30291},{"dx":114,"dy":-77,"t":30345}],[{"dx":366,"dy":78,"t":31297},{"dx":359,"dy":68,"t":31365},{"dx":347,"dy":69,"t":31402},{"dx":373,"dy":64,"t":31471},{"dx":369,"dy":69,"t":31516},{"dx":297,"dy":71,"t":31590},{"dx":270,"dy":70,"t":31632},{"dx":203,"dy":103,"t":31723},{"dx":186,"dy":120,"t":31790},{"dx":179,"dy":144,"t":31954},{"dx":178,"dy":146,"t":32004},{"dx":129,"dy":166,"t":32085},{"dx":104,"dy":171,"t":32142},{"dx":85,"dy":177,"t":32231},{"dx":88,"dy":178,"t":32274},{"dx":115,"dy":168,"t":32359},{"dx":143,"dy":165,"t":32464},{"dx":173,"dy":157,"t":32535},{"dx":189,"dy":154,"t":32603},{"dx":183,"dy":131,"t":32681},{"dx":161,"dy":122,"t":32729},{"dx":154,"dy":116,"t":32795},{"dx":119,"dy":121,"t":32835},{"dx":87,"dy":132,"t":32901},{"dx":75,"dy":138,"t":32940},{"dx":87,"dy":122,"t":33009},{"dx":78,"dy":117,"t":33049},{"dx":-57,"dy":209,"t":33144},{"dx":-207,"dy":314,"t":33314},{"dx":-206,"dy":359,"t":33482},{"dx":-127,"dy":299,"t":33512}],[{"dx":72,"dy":-22,"t":34420},{"dx":49,"dy":7,"t":34489},{"dx":45,"dy":17,"t":34529},{"dx":31,"dy":5,"t":34591},{"dx":31,"dy":-8,"t":34629},{"dx":71,"dy":-27,"t":34692},{"dx":74,"dy":-29,"t":34733},{"dx":51,"dy":-31,"t":34798},{"dx":30,"dy":-35,"t":34836},{"dx":38,"dy":-39,"t":34900},{"dx":47,"dy":-37,"t":34938},{"dx":98,"dy":-62,"t":35008},{"dx":123,"dy":-67,"t":35050},{"dx":138,"dy":-84,"t":35119},{"dx":115,"dy":-85,"t":35169},{"dx":150,"dy":-100,"t":35307},{"dx":182,"dy":-109,"t":35347},{"dx":162,"dy":-88,"t":35419},{"dx":139,"dy":-79,"t":35457},{"dx":99,"dy":-56,"t":35520},{"dx":80,"dy":-49,"t":35558},{"dx":143,"dy":-67,"t":35622},{"dx":147,"dy":-76,"t":35658},{"dx":182,"dy":-99,"t":35721},{"dx":189,"dy":-107,"t":35758},{"dx":203,"dy":-113,"t":35821},{"dx":208,"dy":-113,"t":35861},{"dx":188,"dy":-102,"t":35926},{"dx":169,"dy":-91,"t":35960},{"dx":128,"dy":-82,"t":36054},{"dx":141,"dy":-77,"t":36093},{"dx":105,"dy":-70,"t":36158},{"dx":106,"dy":-77,"t":36196},{"dx":110,"dy":-79,"t":36256},{"dx":116,"dy":-78,"t":36293},{"dx":133,"dy":-75,"t":36353},{"dx":150,"dy":-74,"t":36392},{"dx":194,"dy":-71,"t":36430}],[{"dx":-22,"dy":-149,"t":37459},{"dx":-20,"dy":-148,"t":37505},{"dx":-57,"dy":-162,"t":37571},{"dx":-86,"dy":-170,"t":37610},{"dx":-129,"dy":-174,"t":37678},{"dx":-150,"dy":-185,"t":37719},{"dx":-141,"dy":-168,"t":37782},{"dx":-139,"dy":-150,"t":37820},{"dx":-115,"dy":-131,"t":37882},{"dx":-94,"dy":-120,"t":37919},{"dx":-66,"dy":-113,"t":37986},{"dx":-59,"dy":-115,"t":38020},{"dx":-95,"dy":-119,"t":38082},{"dx":-110,"dy":-117,"t":38120},{"dx":-113,"dy":-119,"t":38182},{"dx":-118,"dy":-123,"t":38224},{"dx":-114,"dy":-117,"t":38292},{"dx":-120,"dy":-115,"t":38331},{"dx":-133,"dy":-111,"t":38394},{"dx":-141,"dy":-110,"t":38437},{"dx":-142,"dy":-104,"t":38501},{"dx":-138,"dy":-101,"t":38539},{"dx":-135,"dy":-111,"t":38606},{"dx":-127,"dy":-108,"t":38647},{"dx":-151,"dy":-140,"t":38717},{"dx":-167,"dy":-159,"t":38762},{"dx":-189,"dy":-180,"t":38825},{"dx":-176,"dy":-191,"t":38868},{"dx":-153,"dy":-167,"t":38940},{"dx":-142,"dy":-153,"t":38982},{"dx":-139,"dy":-138,"t":39046},{"dx":-139,"dy":-132,"t":39084},{"dx":-122,"dy":-120,"t":39147},{"dx":-106,"dy":-115,"t":39183},{"dx":-118,"dy":-117,"t":39246},{"dx":-129,"dy":-113,"t":39283},{"dx":-231,"dy":-69,"t":39346},{"dx":-322,"dy":-33,"t":39384}]],"percent_in_roi":[85.36585365853658,97.36842105263158,60.97560975609756,22.5,87.5,27.500000000000004,90.2439024390244,27.500000000000004,23.076923076923077,61.29032258064516,6.451612903225806,52.63157894736842,7.894736842105263],"average_offset":[{"x":-0.7560975609756098,"y":58.68292682926829,"r":41.86696729672007},{"x":-41,"y":80.10526315789474,"r":75.46898646486669},{"x":120.34146341463415,"y":47.81707317073171,"r":53.10663511873767},{"x":124.95,"y":-58.675,"r":146.439947959552},{"x":41.125,"y":-101.85,"r":48.26992918053051},{"x":127.1,"y":-34.625,"r":127.51036779045043},{"x":91.82926829268293,"y":-2.6219512195121952,"r":32.071872365447895},{"x":158.625,"y":64.775,"r":50.440545494360535},{"x":178.35897435897436,"y":18.67948717948718,"r":88.59722778137977},{"x":111.3225806451613,"y":-49.16129032258065,"r":39.905950828798304},{"x":145.16129032258064,"y":145.74193548387098,"r":65.63532461768658},{"x":116.76315789473684,"y":-63.921052631578945,"r":78.85125344147365},{"x":-127.57894736842105,"y":-130.71052631578948,"r":41.869605706107926}],"samples_per_sec":"18.35","clicks":15,"pattern":"cond","trial_type":"webgazer-validate","trial_index":19,"time_elapsed":233328,"internal_node_id":"0.0-10.0-3.1","validation_points":[[25,25],[15,15],[37.5,62.5],[50,50],[75,75],[62.5,62.5],[37.5,37.5],[75,25],[62.5,37.5],[25,75],[85,15],[15,85],[85,85]],"user_agent":"Mozilla/5.0 (Macintosh; Intel Mac OS X 10_14_6) AppleWebKit/537.36 (KHTML, like Gecko) Chrome/88.0.4324.192 Safari/537.36","screen_width_px":1440,"screen_height_px":900},{"rt":2247.3400000017136,"stimulus":"\n      <p>Round complete.</p>\n      <p>You can move a little bit, but please try to return you head to the same general location before continuing.</p>\n    ","response":0,"trial_type":"html-button-response","trial_index":20,"time_elapsed":235578,"internal_node_id":"0.0-10.0-4.1","user_agent":"Mozilla/5.0 (Macintosh; Intel Mac OS X 10_14_6) AppleWebKit/537.36 (KHTML, like Gecko) Chrome/88.0.4324.192 Safari/537.36","screen_width_px":1440,"screen_height_px":900},{"trial_type":"webgazer-init-camera","trial_index":21,"time_elapsed":238838,"internal_node_id":"0.0-10.0-5.1","user_agent":"Mozilla/5.0 (Macintosh; Intel Mac OS X 10_14_6) AppleWebKit/537.36 (KHTML, like Gecko) Chrome/88.0.4324.192 Safari/537.36","screen_width_px":1440,"screen_height_px":900},{"rt":1038.8000000384636,"stimulus":"\n      <p>Calibration phase next.</p>\n      <p>Click on the dots.</p>\n    ","response":0,"trial_type":"html-button-response","trial_index":22,"time_elapsed":239878,"internal_node_id":"0.0-10.0-0.2","user_agent":"Mozilla/5.0 (Macintosh; Intel Mac OS X 10_14_6) AppleWebKit/537.36 (KHTML, like Gecko) Chrome/88.0.4324.192 Safari/537.36","screen_width_px":1440,"screen_height_px":900},{"trial_type":"webgazer-calibrate","trial_index":23,"time_elapsed":272008,"internal_node_id":"0.0-10.0-1.2","user_agent":"Mozilla/5.0 (Macintosh; Intel Mac OS X 10_14_6) AppleWebKit/537.36 (KHTML, like Gecko) Chrome/88.0.4324.192 Safari/537.36","screen_width_px":1440,"screen_height_px":900},{"rt":877.2299999836832,"stimulus":"\n      <p>Validation phase next.</p>\n      <p>Look at the dots.</p>\n    ","response":0,"trial_type":"html-button-response","trial_index":24,"time_elapsed":272887,"internal_node_id":"0.0-10.0-2.2","user_agent":"Mozilla/5.0 (Macintosh; Intel Mac OS X 10_14_6) AppleWebKit/537.36 (KHTML, like Gecko) Chrome/88.0.4324.192 Safari/537.36","screen_width_px":1440,"screen_height_px":900},{"raw_gaze":[[{"dx":-38,"dy":71.5,"t":1149},{"dx":-54,"dy":65.5,"t":1149},{"dx":-67,"dy":59.5,"t":1187},{"dx":-18,"dy":46.5,"t":1247},{"dx":-18,"dy":40.5,"t":1285},{"dx":19,"dy":35.5,"t":1351},{"dx":48,"dy":16.5,"t":1393},{"dx":26,"dy":20.5,"t":1456},{"dx":2,"dy":11.5,"t":1493},{"dx":24,"dy":11.5,"t":1558},{"dx":60,"dy":17.5,"t":1595},{"dx":67,"dy":20.5,"t":1658},{"dx":60,"dy":13.5,"t":1695},{"dx":90,"dy":28.5,"t":1755},{"dx":97,"dy":36.5,"t":1795},{"dx":94,"dy":37.5,"t":1876},{"dx":48,"dy":35.5,"t":1921},{"dx":11,"dy":25.5,"t":1987},{"dx":20,"dy":16.5,"t":2026},{"dx":20,"dy":5.5,"t":2091},{"dx":0,"dy":-0.5,"t":2133},{"dx":11,"dy":7.5,"t":2201},{"dx":35,"dy":19.5,"t":2243},{"dx":61,"dy":32.5,"t":2314},{"dx":65,"dy":34.5,"t":2356},{"dx":57,"dy":37.5,"t":2419},{"dx":64,"dy":40.5,"t":2460},{"dx":83,"dy":50.5,"t":2524},{"dx":84,"dy":54.5,"t":2563},{"dx":28,"dy":42.5,"t":2628},{"dx":23,"dy":36.5,"t":2665},{"dx":6,"dy":34.5,"t":2731},{"dx":18,"dy":37.5,"t":2769},{"dx":-8,"dy":36.5,"t":2835},{"dx":6,"dy":37.5,"t":2874},{"dx":60,"dy":49.5,"t":2945},{"dx":63,"dy":50.5,"t":2982},{"dx":68,"dy":56.5,"t":3074},{"dx":66,"dy":56.5,"t":3117},{"dx":32,"dy":67.5,"t":3158}],[{"dx":257,"dy":57,"t":4213},{"dx":272,"dy":53,"t":4213},{"dx":283,"dy":48,"t":4250},{"dx":381,"dy":40,"t":4310},{"dx":402,"dy":31,"t":4349},{"dx":447,"dy":21,"t":4411},{"dx":456,"dy":9,"t":4448},{"dx":421,"dy":-34,"t":4511},{"dx":384,"dy":-55,"t":4548},{"dx":288,"dy":-33,"t":4610},{"dx":230,"dy":-30,"t":4647},{"dx":169,"dy":-23,"t":4710},{"dx":154,"dy":-21,"t":4746},{"dx":234,"dy":-22,"t":4809},{"dx":266,"dy":-17,"t":4848},{"dx":248,"dy":-19,"t":4909},{"dx":253,"dy":-18,"t":4949},{"dx":261,"dy":13,"t":5010},{"dx":274,"dy":40,"t":5044},{"dx":273,"dy":31,"t":5107},{"dx":283,"dy":24,"t":5146},{"dx":286,"dy":23,"t":5209},{"dx":241,"dy":-2,"t":5247},{"dx":202,"dy":10,"t":5313},{"dx":190,"dy":24,"t":5353},{"dx":196,"dy":34,"t":5426},{"dx":196,"dy":31,"t":5465},{"dx":183,"dy":-3,"t":5535},{"dx":187,"dy":-20,"t":5576},{"dx":220,"dy":-33,"t":5640},{"dx":226,"dy":-34,"t":5678},{"dx":208,"dy":-5,"t":5740},{"dx":205,"dy":11,"t":5781},{"dx":214,"dy":41,"t":5846},{"dx":202,"dy":56,"t":5885},{"dx":226,"dy":57,"t":5950},{"dx":212,"dy":51,"t":5990},{"dx":198,"dy":14,"t":6070},{"dx":200,"dy":3,"t":6113},{"dx":193,"dy":-5,"t":6187},{"dx":201,"dy":-13,"t":6209}],[{"dx":59,"dy":-90.5,"t":7196},{"dx":40,"dy":-70.5,"t":7294},{"dx":55,"dy":-47.5,"t":7334},{"dx":50,"dy":-24.5,"t":7400},{"dx":49,"dy":-1.5,"t":7438},{"dx":46,"dy":42.5,"t":7501},{"dx":52,"dy":59.5,"t":7538},{"dx":69,"dy":53.5,"t":7605},{"dx":82,"dy":57.5,"t":7644},{"dx":37,"dy":65.5,"t":7706},{"dx":15,"dy":70.5,"t":7741},{"dx":6,"dy":71.5,"t":7812},{"dx":7,"dy":72.5,"t":7852},{"dx":32,"dy":71.5,"t":7919},{"dx":52,"dy":68.5,"t":7956},{"dx":81,"dy":54.5,"t":8023},{"dx":44,"dy":34.5,"t":8063},{"dx":59,"dy":34.5,"t":8132},{"dx":59,"dy":41.5,"t":8169},{"dx":81,"dy":43.5,"t":8231},{"dx":78,"dy":47.5,"t":8271},{"dx":60,"dy":39.5,"t":8332},{"dx":58,"dy":28.5,"t":8370},{"dx":14,"dy":-4.5,"t":8433},{"dx":17,"dy":-20.5,"t":8471},{"dx":-31,"dy":-40.5,"t":8532},{"dx":-46,"dy":-54.5,"t":8569},{"dx":-73,"dy":-46.5,"t":8632},{"dx":-79,"dy":-42.5,"t":8670},{"dx":-65,"dy":-33.5,"t":8732},{"dx":-72,"dy":-34.5,"t":8771},{"dx":-36,"dy":-14.5,"t":8836},{"dx":-40,"dy":-3.5,"t":8872},{"dx":-25,"dy":-30.5,"t":8934},{"dx":-34,"dy":-26.5,"t":8969},{"dx":-57,"dy":91.5,"t":9034},{"dx":-69,"dy":189.5,"t":9069},{"dx":-89,"dy":306.5,"t":9137},{"dx":-84,"dy":347.5,"t":9177},{"dx":-148,"dy":310.5,"t":9217}],[{"dx":34,"dy":-105,"t":10248},{"dx":61,"dy":-117,"t":10284},{"dx":5,"dy":-102,"t":10349},{"dx":18,"dy":-87,"t":10388},{"dx":-19,"dy":-77,"t":10455},{"dx":-29,"dy":-61,"t":10496},{"dx":-34,"dy":-25,"t":10559},{"dx":-31,"dy":-6,"t":10598},{"dx":12,"dy":-1,"t":10661},{"dx":26,"dy":-9,"t":10697},{"dx":-22,"dy":0,"t":10761},{"dx":-38,"dy":0,"t":10800},{"dx":-52,"dy":-2,"t":10864},{"dx":-53,"dy":-8,"t":10904},{"dx":-120,"dy":-24,"t":10968},{"dx":-158,"dy":-41,"t":11007},{"dx":-99,"dy":-15,"t":11071},{"dx":-68,"dy":-16,"t":11109},{"dx":-14,"dy":15,"t":11172},{"dx":-4,"dy":35,"t":11213},{"dx":37,"dy":32,"t":11280},{"dx":45,"dy":23,"t":11317},{"dx":69,"dy":20,"t":11383},{"dx":65,"dy":17,"t":11425},{"dx":67,"dy":7,"t":11491},{"dx":51,"dy":-9,"t":11530},{"dx":34,"dy":-35,"t":11591},{"dx":28,"dy":-50,"t":11630},{"dx":-47,"dy":-62,"t":11695},{"dx":-74,"dy":-69,"t":11735},{"dx":-46,"dy":-80,"t":11796},{"dx":-39,"dy":-73,"t":11832},{"dx":5,"dy":-88,"t":11907},{"dx":-8,"dy":-85,"t":11946},{"dx":-58,"dy":-51,"t":12016},{"dx":-62,"dy":-30,"t":12057},{"dx":-14,"dy":-10,"t":12123},{"dx":10,"dy":1,"t":12163},{"dx":8,"dy":67,"t":12227},{"dx":15,"dy":121,"t":12243}],[{"dx":-101,"dy":149,"t":13266},{"dx":-125,"dy":110,"t":13301},{"dx":-138,"dy":63,"t":13360},{"dx":-144,"dy":37,"t":13398},{"dx":-110,"dy":29,"t":13460},{"dx":-108,"dy":26,"t":13498},{"dx":-75,"dy":25,"t":13558},{"dx":-66,"dy":29,"t":13596},{"dx":-53,"dy":34,"t":13660},{"dx":-29,"dy":43,"t":13699},{"dx":3,"dy":55,"t":13761},{"dx":12,"dy":58,"t":13799},{"dx":-16,"dy":71,"t":13861},{"dx":-23,"dy":77,"t":13899},{"dx":115,"dy":195,"t":13963},{"dx":236,"dy":291,"t":14001},{"dx":143,"dy":356,"t":14070},{"dx":48,"dy":323,"t":14107},{"dx":-49,"dy":250,"t":14175},{"dx":-88,"dy":208,"t":14215},{"dx":-67,"dy":130,"t":14283},{"dx":-51,"dy":100,"t":14321},{"dx":-98,"dy":85,"t":14384},{"dx":-115,"dy":75,"t":14421},{"dx":-47,"dy":63,"t":14485},{"dx":-5,"dy":64,"t":14524},{"dx":20,"dy":72,"t":14586},{"dx":44,"dy":89,"t":14624},{"dx":68,"dy":78,"t":14686},{"dx":77,"dy":74,"t":14722},{"dx":69,"dy":65,"t":14785},{"dx":52,"dy":61,"t":14822},{"dx":34,"dy":60,"t":14883},{"dx":31,"dy":62,"t":14921},{"dx":24,"dy":52,"t":14985},{"dx":19,"dy":42,"t":15032},{"dx":7,"dy":33,"t":15098},{"dx":0,"dy":33,"t":15138},{"dx":-16,"dy":24,"t":15205},{"dx":-24,"dy":17,"t":15248},{"dx":-39,"dy":39,"t":15286}],[{"dx":133,"dy":128.5,"t":16307},{"dx":110,"dy":114.5,"t":16346},{"dx":58,"dy":63.5,"t":16415},{"dx":29,"dy":31.5,"t":16465},{"dx":68,"dy":79.5,"t":16530},{"dx":142,"dy":132.5,"t":16570},{"dx":222,"dy":211.5,"t":16638},{"dx":206,"dy":235.5,"t":16680},{"dx":114,"dy":181.5,"t":16746},{"dx":89,"dy":136.5,"t":16782},{"dx":35,"dy":78.5,"t":16847},{"dx":40,"dy":79.5,"t":16887},{"dx":25,"dy":6.5,"t":16965},{"dx":16,"dy":-16.5,"t":17018},{"dx":-3,"dy":-41.5,"t":17106},{"dx":-12,"dy":-46.5,"t":17190},{"dx":8,"dy":-53.5,"t":17323},{"dx":12,"dy":-47.5,"t":17404},{"dx":42,"dy":-20.5,"t":17509},{"dx":28,"dy":6.5,"t":17590},{"dx":18,"dy":23.5,"t":17726},{"dx":20,"dy":16.5,"t":17773},{"dx":130,"dy":60.5,"t":17853},{"dx":215,"dy":106.5,"t":17890},{"dx":186,"dy":147.5,"t":17954},{"dx":165,"dy":136.5,"t":17994},{"dx":92,"dy":92.5,"t":18062},{"dx":72,"dy":43.5,"t":18103},{"dx":25,"dy":16.5,"t":18173},{"dx":20,"dy":13.5,"t":18217},{"dx":30,"dy":-25.5,"t":18285},{"dx":41,"dy":-41.5,"t":18302}],[{"dx":4,"dy":-55,"t":19318},{"dx":2,"dy":-69,"t":19352},{"dx":176,"dy":-28,"t":19411},{"dx":308,"dy":31,"t":19450},{"dx":287,"dy":112,"t":19512},{"dx":226,"dy":127,"t":19547},{"dx":249,"dy":120,"t":19609},{"dx":252,"dy":116,"t":19644},{"dx":228,"dy":130,"t":19706},{"dx":209,"dy":112,"t":19743},{"dx":199,"dy":76,"t":19806},{"dx":199,"dy":57,"t":19844},{"dx":203,"dy":12,"t":19906},{"dx":166,"dy":-2,"t":19951},{"dx":155,"dy":-11,"t":20076},{"dx":152,"dy":-23,"t":20113},{"dx":115,"dy":-44,"t":20178},{"dx":96,"dy":-57,"t":20215},{"dx":70,"dy":-49,"t":20275},{"dx":50,"dy":-42,"t":20312},{"dx":52,"dy":-53,"t":20373},{"dx":64,"dy":-51,"t":20408},{"dx":58,"dy":-74,"t":20471},{"dx":58,"dy":-82,"t":20510},{"dx":77,"dy":-101,"t":20571},{"dx":92,"dy":-109,"t":20608},{"dx":220,"dy":-68,"t":20671},{"dx":324,"dy":-37,"t":20710},{"dx":352,"dy":53,"t":20794},{"dx":320,"dy":88,"t":20833},{"dx":263,"dy":104,"t":20902},{"dx":241,"dy":103,"t":20944},{"dx":201,"dy":71,"t":21019},{"dx":182,"dy":48,"t":21061},{"dx":105,"dy":-21,"t":21138},{"dx":93,"dy":-55,"t":21191},{"dx":107,"dy":-96,"t":21261},{"dx":105,"dy":-110,"t":21305},{"dx":69,"dy":-142,"t":21342}],[{"dx":-29,"dy":60,"t":22340},{"dx":-53,"dy":0,"t":22432},{"dx":-73,"dy":-7,"t":22468},{"dx":-21,"dy":-35,"t":22532},{"dx":-25,"dy":-49,"t":22570},{"dx":-132,"dy":76,"t":22632},{"dx":-164,"dy":173,"t":22670},{"dx":-323,"dy":217,"t":22736},{"dx":-338,"dy":200,"t":22791},{"dx":-213,"dy":137,"t":22863},{"dx":-177,"dy":107,"t":22900},{"dx":-138,"dy":51,"t":22972},{"dx":-128,"dy":20,"t":23012},{"dx":-141,"dy":138,"t":23074},{"dx":-160,"dy":261,"t":23110},{"dx":-318,"dy":279,"t":23173},{"dx":-315,"dy":225,"t":23210},{"dx":-221,"dy":174,"t":23274},{"dx":-194,"dy":152,"t":23314},{"dx":-179,"dy":207,"t":23374},{"dx":-191,"dy":276,"t":23412},{"dx":-308,"dy":291,"t":23477},{"dx":-311,"dy":243,"t":23513},{"dx":-166,"dy":164,"t":23576},{"dx":-119,"dy":117,"t":23613},{"dx":-44,"dy":74,"t":23674},{"dx":-9,"dy":59,"t":23711},{"dx":-20,"dy":5,"t":23773},{"dx":-36,"dy":-13,"t":23809},{"dx":-57,"dy":-34,"t":23871},{"dx":-60,"dy":-44,"t":23909},{"dx":-41,"dy":-28,"t":23972},{"dx":-30,"dy":-16,"t":24010},{"dx":-50,"dy":-9,"t":24075},{"dx":-59,"dy":-10,"t":24115},{"dx":-96,"dy":12,"t":24178},{"dx":-111,"dy":24,"t":24216},{"dx":-84,"dy":10,"t":24281},{"dx":-68,"dy":1,"t":24326},{"dx":-62,"dy":-18,"t":24364}],[{"dx":-63,"dy":135.5,"t":25390},{"dx":-15,"dy":102.5,"t":25430},{"dx":-44,"dy":54.5,"t":25491},{"dx":-24,"dy":25.5,"t":25531},{"dx":-28,"dy":-40.5,"t":25596},{"dx":-34,"dy":-73.5,"t":25634},{"dx":-34,"dy":-51.5,"t":25698},{"dx":-63,"dy":-5.5,"t":25735},{"dx":-39,"dy":61.5,"t":25797},{"dx":4,"dy":71.5,"t":25880},{"dx":-32,"dy":81.5,"t":25969},{"dx":-23,"dy":62.5,"t":26008},{"dx":6,"dy":56.5,"t":26090},{"dx":16,"dy":59.5,"t":26130},{"dx":-41,"dy":85.5,"t":26193},{"dx":-41,"dy":105.5,"t":26234},{"dx":-92,"dy":94.5,"t":26300},{"dx":-93,"dy":103.5,"t":26343},{"dx":-92,"dy":65.5,"t":26414},{"dx":-90,"dy":50.5,"t":26454},{"dx":-72,"dy":-14.5,"t":26523},{"dx":-40,"dy":-17.5,"t":26560},{"dx":5,"dy":-41.5,"t":26625},{"dx":36,"dy":-37.5,"t":26664},{"dx":107,"dy":-22.5,"t":26726},{"dx":143,"dy":-10.5,"t":26766},{"dx":122,"dy":7.5,"t":26891},{"dx":120,"dy":2.5,"t":26933},{"dx":66,"dy":-11.5,"t":27016},{"dx":28,"dy":-23.5,"t":27074},{"dx":7,"dy":-49.5,"t":27138},{"dx":-4,"dy":-51.5,"t":27179},{"dx":1,"dy":-56.5,"t":27251},{"dx":-14,"dy":-57.5,"t":27291},{"dx":-11,"dy":-62.5,"t":27362},{"dx":23,"dy":-71.5,"t":27379}],[{"dx":-289,"dy":-78,"t":28387},{"dx":-273,"dy":-101,"t":28423},{"dx":-228,"dy":-107,"t":28486},{"dx":-205,"dy":-120,"t":28523},{"dx":-176,"dy":-96,"t":28588},{"dx":-169,"dy":-88,"t":28627},{"dx":-162,"dy":-104,"t":28696},{"dx":-154,"dy":-119,"t":28735},{"dx":-125,"dy":-107,"t":28798},{"dx":-108,"dy":-91,"t":28838},{"dx":-115,"dy":-105,"t":28907},{"dx":-132,"dy":-128,"t":28948},{"dx":-119,"dy":-162,"t":29016},{"dx":-98,"dy":-168,"t":29073},{"dx":-119,"dy":-174,"t":29138},{"dx":-118,"dy":-171,"t":29176},{"dx":-118,"dy":-162,"t":29250},{"dx":-122,"dy":-159,"t":29288},{"dx":-153,"dy":-152,"t":29351},{"dx":-178,"dy":-149,"t":29394},{"dx":-175,"dy":-162,"t":29456},{"dx":-186,"dy":-158,"t":29492},{"dx":-166,"dy":-194,"t":29552},{"dx":-137,"dy":-198,"t":29586},{"dx":-106,"dy":-216,"t":29648},{"dx":-103,"dy":-228,"t":29687},{"dx":-128,"dy":-195,"t":29748},{"dx":-140,"dy":-192,"t":29784},{"dx":-131,"dy":-193,"t":29846},{"dx":-131,"dy":-203,"t":29885},{"dx":-148,"dy":-201,"t":29948},{"dx":-158,"dy":-191,"t":29986},{"dx":-154,"dy":-167,"t":30053},{"dx":-152,"dy":-157,"t":30089},{"dx":-166,"dy":-101,"t":30151},{"dx":-179,"dy":-62,"t":30186},{"dx":-129,"dy":-81,"t":30246},{"dx":-76,"dy":-91,"t":30285},{"dx":-149,"dy":-134,"t":30347},{"dx":-164,"dy":-146,"t":30391},{"dx":-163,"dy":-168,"t":30430}],[{"dx":-132,"dy":69,"t":31448},{"dx":-114,"dy":37,"t":31537},{"dx":-99,"dy":9,"t":31537},{"dx":-87,"dy":-15,"t":31584},{"dx":-24,"dy":-66,"t":31652},{"dx":38,"dy":-92,"t":31690},{"dx":-5,"dy":-82,"t":31754},{"dx":-39,"dy":-78,"t":31791},{"dx":-54,"dy":-92,"t":31871},{"dx":-37,"dy":-83,"t":31914},{"dx":-46,"dy":-98,"t":31978},{"dx":-53,"dy":-102,"t":32018},{"dx":-106,"dy":-131,"t":32082},{"dx":-113,"dy":-151,"t":32122},{"dx":-87,"dy":-153,"t":32192},{"dx":-126,"dy":-134,"t":32233},{"dx":-172,"dy":-80,"t":32312},{"dx":-186,"dy":-40,"t":32349},{"dx":-62,"dy":1,"t":32419},{"dx":45,"dy":-5,"t":32457},{"dx":55,"dy":-41,"t":32523},{"dx":47,"dy":-52,"t":32561},{"dx":33,"dy":-40,"t":32626},{"dx":25,"dy":-46,"t":32663},{"dx":28,"dy":-52,"t":32728},{"dx":23,"dy":-48,"t":32766},{"dx":48,"dy":-61,"t":32835},{"dx":67,"dy":-67,"t":32874},{"dx":48,"dy":-80,"t":32940},{"dx":47,"dy":-70,"t":32978},{"dx":25,"dy":-73,"t":33043},{"dx":7,"dy":-83,"t":33079},{"dx":4,"dy":-99,"t":33144},{"dx":5,"dy":-102,"t":33180},{"dx":14,"dy":-129,"t":33240},{"dx":53,"dy":-129,"t":33278},{"dx":-15,"dy":-120,"t":33343},{"dx":-47,"dy":-98,"t":33379},{"dx":-3,"dy":-133,"t":33443},{"dx":26,"dy":-146,"t":33464}],[{"dx":-175,"dy":189,"t":34483},{"dx":-160,"dy":161,"t":34526},{"dx":-23,"dy":123,"t":34596},{"dx":27,"dy":98,"t":34647},{"dx":68,"dy":79,"t":34736},{"dx":83,"dy":74,"t":34800},{"dx":116,"dy":113,"t":34867},{"dx":110,"dy":151,"t":34909},{"dx":27,"dy":134,"t":34971},{"dx":-16,"dy":104,"t":35009},{"dx":-44,"dy":49,"t":35072},{"dx":-56,"dy":31,"t":35108},{"dx":-36,"dy":-7,"t":35170},{"dx":-10,"dy":-25,"t":35208},{"dx":14,"dy":-32,"t":35270},{"dx":33,"dy":-29,"t":35307},{"dx":26,"dy":-22,"t":35368},{"dx":5,"dy":-21,"t":35406},{"dx":-46,"dy":-10,"t":35468},{"dx":-69,"dy":2,"t":35507},{"dx":-59,"dy":-12,"t":35568},{"dx":-58,"dy":-21,"t":35606},{"dx":-81,"dy":-26,"t":35668},{"dx":-112,"dy":-17,"t":35708},{"dx":-60,"dy":4,"t":35772},{"dx":-46,"dy":11,"t":35809},{"dx":-17,"dy":25,"t":35872},{"dx":-20,"dy":22,"t":35913},{"dx":-32,"dy":6,"t":35975},{"dx":-20,"dy":-5,"t":36012},{"dx":4,"dy":-21,"t":36078},{"dx":10,"dy":-19,"t":36114},{"dx":36,"dy":-20,"t":36175},{"dx":54,"dy":-23,"t":36212},{"dx":61,"dy":-8,"t":36280},{"dx":76,"dy":1,"t":36320},{"dx":56,"dy":-14,"t":36388},{"dx":37,"dy":-12,"t":36433},{"dx":1,"dy":-23,"t":36473}],[{"dx":-71,"dy":266,"t":37531},{"dx":-33,"dy":367,"t":37531},{"dx":13,"dy":461,"t":37568},{"dx":34,"dy":473,"t":37629},{"dx":-18,"dy":386,"t":37672},{"dx":21,"dy":290,"t":37735},{"dx":14,"dy":232,"t":37774},{"dx":12,"dy":124,"t":37840},{"dx":2,"dy":66,"t":37887},{"dx":163,"dy":143,"t":37954},{"dx":281,"dy":226,"t":37995},{"dx":220,"dy":262,"t":38058},{"dx":55,"dy":207,"t":38097},{"dx":-83,"dy":142,"t":38163},{"dx":-70,"dy":117,"t":38202},{"dx":71,"dy":190,"t":38266},{"dx":195,"dy":281,"t":38303},{"dx":135,"dy":249,"t":38364},{"dx":12,"dy":159,"t":38400},{"dx":-71,"dy":118,"t":38462},{"dx":-103,"dy":80,"t":38502},{"dx":0,"dy":81,"t":38563},{"dx":25,"dy":72,"t":38599},{"dx":-7,"dy":63,"t":38663},{"dx":28,"dy":61,"t":38700},{"dx":-17,"dy":57,"t":38764},{"dx":-70,"dy":49,"t":38799},{"dx":-134,"dy":41,"t":38861},{"dx":-189,"dy":28,"t":38899},{"dx":-203,"dy":57,"t":38965},{"dx":-224,"dy":77,"t":39004},{"dx":-135,"dy":79,"t":39067},{"dx":-154,"dy":90,"t":39107},{"dx":-106,"dy":67,"t":39169},{"dx":-121,"dy":46,"t":39207},{"dx":-102,"dy":42,"t":39269},{"dx":-147,"dy":20,"t":39305},{"dx":-101,"dy":78,"t":39369},{"dx":-70,"dy":102,"t":39409}]],"percent_in_roi":[100,0,90,97.5,78.04878048780488,68.75,38.46153846153847,55.00000000000001,100,4.878048780487805,85,89.74358974358975,46.15384615384615],"average_offset":[{"x":32.825,"y":34.95,"r":48.57547595891907},{"x":254.1951219512195,"y":8.170731707317072,"r":53.51948724132787},{"x":6.35,"y":40.4,"r":109.35808979292878},{"x":-12.475,"y":-25,"r":86.3329966095392},{"x":-14.268292682926829,"y":91.39024390243902,"r":72.90441371796213},{"x":74.25,"y":57.8125,"r":122.40452863068681},{"x":162.28205128205127,"y":-0.48717948717948717,"r":122.14633499695637},{"x":-131.6,"y":87.25,"r":187.47727788213356},{"x":-8.472222222222221,"y":14.63888888888889,"r":106.77779737282853},{"x":-151.26829268292684,"y":-145.82926829268294,"r":47.52589700760161},{"x":-24.225,"y":-73.875,"r":102.74658104007595},{"x":-7.589743589743589,"y":25.897435897435898,"r":63.8688508724603},{"x":-24.307692307692307,"y":152.53846153846155,"r":122.69348926366185}],"samples_per_sec":"18.96","clicks":25,"pattern":"cond","trial_type":"webgazer-validate","trial_index":25,"time_elapsed":313321,"internal_node_id":"0.0-10.0-3.2","validation_points":[[37.5,37.5],[15,85],[62.5,37.5],[50,50],[15,15],[37.5,62.5],[25,75],[85,15],[62.5,62.5],[85,85],[75,75],[75,25],[25,25]],"user_agent":"Mozilla/5.0 (Macintosh; Intel Mac OS X 10_14_6) AppleWebKit/537.36 (KHTML, like Gecko) Chrome/88.0.4324.192 Safari/537.36","screen_width_px":1440,"screen_height_px":900},{"rt":2603.4099999815226,"stimulus":"\n      <p>Round complete.</p>\n      <p>You can move a little bit, but please try to return you head to the same general location before continuing.</p>\n    ","response":0,"trial_type":"html-button-response","trial_index":26,"time_elapsed":315926,"internal_node_id":"0.0-10.0-4.2","user_agent":"Mozilla/5.0 (Macintosh; Intel Mac OS X 10_14_6) AppleWebKit/537.36 (KHTML, like Gecko) Chrome/88.0.4324.192 Safari/537.36","screen_width_px":1440,"screen_height_px":900},{"trial_type":"webgazer-init-camera","trial_index":27,"time_elapsed":318331,"internal_node_id":"0.0-10.0-5.2","user_agent":"Mozilla/5.0 (Macintosh; Intel Mac OS X 10_14_6) AppleWebKit/537.36 (KHTML, like Gecko) Chrome/88.0.4324.192 Safari/537.36","screen_width_px":1440,"screen_height_px":900},{"rt":968.1700000073761,"stimulus":"\n      <p>Calibration phase next.</p>\n      <p>Click on the dots.</p>\n    ","response":0,"trial_type":"html-button-response","trial_index":28,"time_elapsed":319301,"internal_node_id":"0.0-10.0-0.3","user_agent":"Mozilla/5.0 (Macintosh; Intel Mac OS X 10_14_6) AppleWebKit/537.36 (KHTML, like Gecko) Chrome/88.0.4324.192 Safari/537.36","screen_width_px":1440,"screen_height_px":900},{"trial_type":"webgazer-calibrate","trial_index":29,"time_elapsed":353001,"internal_node_id":"0.0-10.0-1.3","user_agent":"Mozilla/5.0 (Macintosh; Intel Mac OS X 10_14_6) AppleWebKit/537.36 (KHTML, like Gecko) Chrome/88.0.4324.192 Safari/537.36","screen_width_px":1440,"screen_height_px":900},{"rt":1188.4000000427477,"stimulus":"\n      <p>Validation phase next.</p>\n      <p>Look at the dots.</p>\n    ","response":0,"trial_type":"html-button-response","trial_index":30,"time_elapsed":354191,"internal_node_id":"0.0-10.0-2.3","user_agent":"Mozilla/5.0 (Macintosh; Intel Mac OS X 10_14_6) AppleWebKit/537.36 (KHTML, like Gecko) Chrome/88.0.4324.192 Safari/537.36","screen_width_px":1440,"screen_height_px":900},{"raw_gaze":[[{"dx":-42,"dy":96.5,"t":1139},{"dx":-31,"dy":88.5,"t":1178},{"dx":-52,"dy":90.5,"t":1249},{"dx":-49,"dy":102.5,"t":1308},{"dx":-40,"dy":121.5,"t":1376},{"dx":-36,"dy":128.5,"t":1414},{"dx":-37,"dy":155.5,"t":1492},{"dx":-44,"dy":162.5,"t":1533},{"dx":-88,"dy":145.5,"t":1609},{"dx":-109,"dy":129.5,"t":1653},{"dx":-125,"dy":87.5,"t":1739},{"dx":-99,"dy":80.5,"t":1779},{"dx":-90,"dy":71.5,"t":1854},{"dx":-97,"dy":52.5,"t":1898},{"dx":-114,"dy":37.5,"t":1987},{"dx":-113,"dy":34.5,"t":2027},{"dx":-99,"dy":-17.5,"t":2099},{"dx":-94,"dy":-26.5,"t":2139},{"dx":-29,"dy":9.5,"t":2215},{"dx":3,"dy":22.5,"t":2262},{"dx":-30,"dy":57.5,"t":2334},{"dx":-59,"dy":71.5,"t":2374},{"dx":-52,"dy":108.5,"t":2453},{"dx":-47,"dy":132.5,"t":2493},{"dx":-34,"dy":140.5,"t":2558},{"dx":-26,"dy":128.5,"t":2604},{"dx":-59,"dy":105.5,"t":2683},{"dx":-80,"dy":91.5,"t":2724},{"dx":-90,"dy":53.5,"t":2798},{"dx":-83,"dy":31.5,"t":2839},{"dx":-44,"dy":-6.5,"t":2916},{"dx":-36,"dy":-25.5,"t":2961},{"dx":-72,"dy":18.5,"t":3029},{"dx":-107,"dy":48.5,"t":3075},{"dx":-127,"dy":75.5,"t":3117}],[{"dx":-89,"dy":0,"t":4137},{"dx":-50,"dy":18,"t":4214},{"dx":-34,"dy":53,"t":4214},{"dx":0,"dy":66,"t":4258},{"dx":7,"dy":50,"t":4341},{"dx":6,"dy":51,"t":4385},{"dx":-24,"dy":99,"t":4449},{"dx":-47,"dy":128,"t":4491},{"dx":-20,"dy":102,"t":4554},{"dx":-7,"dy":93,"t":4593},{"dx":28,"dy":92,"t":4667},{"dx":37,"dy":98,"t":4710},{"dx":66,"dy":101,"t":4787},{"dx":92,"dy":84,"t":4825},{"dx":52,"dy":51,"t":4895},{"dx":30,"dy":31,"t":4941},{"dx":-12,"dy":43,"t":5009},{"dx":-29,"dy":52,"t":5059},{"dx":76,"dy":236,"t":5129},{"dx":162,"dy":370,"t":5181},{"dx":139,"dy":399,"t":5249},{"dx":67,"dy":327,"t":5289},{"dx":-6,"dy":236,"t":5356},{"dx":-27,"dy":203,"t":5399},{"dx":-74,"dy":148,"t":5466},{"dx":-92,"dy":124,"t":5505},{"dx":-51,"dy":95,"t":5579},{"dx":-33,"dy":69,"t":5617},{"dx":-11,"dy":59,"t":5683},{"dx":28,"dy":56,"t":5721},{"dx":31,"dy":76,"t":5805},{"dx":35,"dy":90,"t":5848},{"dx":38,"dy":81,"t":5934},{"dx":30,"dy":68,"t":5977},{"dx":38,"dy":103,"t":6052},{"dx":40,"dy":121,"t":6158},{"dx":143,"dy":100,"t":6200}],[{"dx":59,"dy":154,"t":7146},{"dx":29,"dy":244,"t":7246},{"dx":27,"dy":311,"t":7289},{"dx":17,"dy":345,"t":7358},{"dx":22,"dy":318,"t":7397},{"dx":-23,"dy":229,"t":7472},{"dx":-10,"dy":183,"t":7682},{"dx":-66,"dy":104,"t":7922},{"dx":-126,"dy":64,"t":8033},{"dx":-96,"dy":51,"t":8262},{"dx":-66,"dy":58,"t":8338},{"dx":-99,"dy":33,"t":8472},{"dx":-109,"dy":12,"t":8537},{"dx":-118,"dy":-30,"t":8635},{"dx":-152,"dy":-39,"t":8709},{"dx":-150,"dy":-47,"t":8822},{"dx":-127,"dy":-45,"t":8874},{"dx":-34,"dy":-55,"t":8939},{"dx":33,"dy":-59,"t":8976},{"dx":7,"dy":-57,"t":9040},{"dx":32,"dy":-45,"t":9075},{"dx":-5,"dy":-72,"t":9145},{"dx":-30,"dy":-98,"t":9161}],[{"dx":30,"dy":254,"t":10227},{"dx":152,"dy":408,"t":10227},{"dx":256,"dy":538,"t":10268},{"dx":259,"dy":525,"t":10335},{"dx":224,"dy":412,"t":10372},{"dx":148,"dy":321,"t":10433},{"dx":129,"dy":242,"t":10471},{"dx":52,"dy":146,"t":10535},{"dx":-9,"dy":107,"t":10570},{"dx":-141,"dy":72,"t":10638},{"dx":-194,"dy":66,"t":10677},{"dx":-153,"dy":40,"t":10756},{"dx":-127,"dy":36,"t":10805},{"dx":-153,"dy":91,"t":10865},{"dx":-154,"dy":75,"t":10908},{"dx":-93,"dy":29,"t":10973},{"dx":-79,"dy":9,"t":11015},{"dx":-2,"dy":53,"t":11085},{"dx":34,"dy":66,"t":11123},{"dx":79,"dy":77,"t":11198},{"dx":89,"dy":77,"t":11238},{"dx":99,"dy":92,"t":11304},{"dx":124,"dy":96,"t":11342},{"dx":168,"dy":84,"t":11407},{"dx":180,"dy":91,"t":11446},{"dx":105,"dy":96,"t":11510},{"dx":67,"dy":93,"t":11548},{"dx":-4,"dy":93,"t":11615},{"dx":-15,"dy":100,"t":11655},{"dx":-72,"dy":99,"t":11727},{"dx":-82,"dy":112,"t":11779},{"dx":-95,"dy":101,"t":11848},{"dx":-83,"dy":93,"t":11886},{"dx":-87,"dy":90,"t":11958},{"dx":-86,"dy":79,"t":12000},{"dx":-78,"dy":72,"t":12069},{"dx":-86,"dy":87,"t":12120},{"dx":-110,"dy":101,"t":12196},{"dx":-125,"dy":110,"t":12217}],[{"dx":209,"dy":5,"t":13283},{"dx":207,"dy":-3,"t":13283},{"dx":205,"dy":-11,"t":13326},{"dx":172,"dy":-20,"t":13391},{"dx":164,"dy":-28,"t":13434},{"dx":146,"dy":-46,"t":13503},{"dx":129,"dy":-54,"t":13542},{"dx":133,"dy":-72,"t":13611},{"dx":150,"dy":-82,"t":13656},{"dx":122,"dy":-111,"t":13726},{"dx":89,"dy":-116,"t":13770},{"dx":52,"dy":-144,"t":13843},{"dx":35,"dy":-156,"t":13882},{"dx":6,"dy":-170,"t":13955},{"dx":7,"dy":-172,"t":13999},{"dx":-32,"dy":-194,"t":14062},{"dx":-65,"dy":-212,"t":14104},{"dx":-82,"dy":-217,"t":14167},{"dx":-66,"dy":-202,"t":14207},{"dx":-4,"dy":-146,"t":14274},{"dx":13,"dy":-115,"t":14316},{"dx":96,"dy":-98,"t":14396},{"dx":132,"dy":-99,"t":14514},{"dx":222,"dy":-137,"t":14600},{"dx":291,"dy":-169,"t":14641},{"dx":399,"dy":-149,"t":14710},{"dx":429,"dy":-137,"t":14755},{"dx":479,"dy":-103,"t":14824},{"dx":498,"dy":-94,"t":14865},{"dx":481,"dy":-101,"t":14929},{"dx":494,"dy":-93,"t":14965},{"dx":380,"dy":-63,"t":15043},{"dx":312,"dy":-65,"t":15084},{"dx":236,"dy":-71,"t":15156},{"dx":172,"dy":-88,"t":15203},{"dx":131,"dy":-89,"t":15246}],[{"dx":85,"dy":-56,"t":16232},{"dx":69,"dy":-120,"t":16328},{"dx":61,"dy":-96,"t":16364},{"dx":69,"dy":-108,"t":16434},{"dx":72,"dy":-118,"t":16474},{"dx":86,"dy":-124,"t":16669},{"dx":78,"dy":-105,"t":16719},{"dx":27,"dy":-90,"t":16791},{"dx":1,"dy":-81,"t":16830},{"dx":-28,"dy":-65,"t":16895},{"dx":-33,"dy":-63,"t":16933},{"dx":-19,"dy":-76,"t":17061},{"dx":-2,"dy":-89,"t":17124},{"dx":15,"dy":-102,"t":17348},{"dx":12,"dy":-99,"t":17399},{"dx":35,"dy":-90,"t":17479},{"dx":36,"dy":-81,"t":17543},{"dx":48,"dy":-54,"t":17638},{"dx":44,"dy":-35,"t":17701},{"dx":99,"dy":21,"t":17775},{"dx":163,"dy":51,"t":17815},{"dx":179,"dy":82,"t":17880},{"dx":141,"dy":46,"t":17918},{"dx":106,"dy":8,"t":17980},{"dx":91,"dy":20,"t":18019},{"dx":86,"dy":-42,"t":18082},{"dx":80,"dy":-63,"t":18119},{"dx":68,"dy":-67,"t":18185},{"dx":85,"dy":-87,"t":18233},{"dx":42,"dy":-99,"t":18276}],[{"dx":-195,"dy":374,"t":19249},{"dx":-166,"dy":350,"t":19347},{"dx":-151,"dy":326,"t":19389},{"dx":-116,"dy":269,"t":19455},{"dx":-89,"dy":237,"t":19491},{"dx":-13,"dy":241,"t":19558},{"dx":1,"dy":240,"t":19597},{"dx":14,"dy":211,"t":19663},{"dx":16,"dy":187,"t":19701},{"dx":1,"dy":146,"t":19769},{"dx":-14,"dy":128,"t":19809},{"dx":-20,"dy":108,"t":19875},{"dx":-15,"dy":104,"t":19911},{"dx":-31,"dy":75,"t":19975},{"dx":-47,"dy":60,"t":20014},{"dx":-23,"dy":86,"t":20076},{"dx":-16,"dy":84,"t":20115},{"dx":1,"dy":74,"t":20175},{"dx":4,"dy":78,"t":20216},{"dx":-10,"dy":89,"t":20276},{"dx":-24,"dy":94,"t":20313},{"dx":-88,"dy":174,"t":20377},{"dx":-155,"dy":251,"t":20414},{"dx":-188,"dy":382,"t":20476},{"dx":-195,"dy":414,"t":20512},{"dx":-168,"dy":366,"t":20574},{"dx":-144,"dy":316,"t":20614},{"dx":-76,"dy":306,"t":20676},{"dx":-42,"dy":305,"t":20712},{"dx":-53,"dy":246,"t":20777},{"dx":-72,"dy":212,"t":20812},{"dx":-93,"dy":144,"t":20876},{"dx":-96,"dy":112,"t":20914},{"dx":-52,"dy":108,"t":20975},{"dx":-53,"dy":99,"t":21016},{"dx":-60,"dy":64,"t":21077},{"dx":-62,"dy":53,"t":21113},{"dx":7,"dy":67,"t":21175},{"dx":31,"dy":80,"t":21211},{"dx":21,"dy":93,"t":21277},{"dx":15,"dy":103,"t":21291}],[{"dx":-168,"dy":192.5,"t":22313},{"dx":-141,"dy":187.5,"t":22352},{"dx":-123,"dy":170.5,"t":22414},{"dx":-88,"dy":156.5,"t":22451},{"dx":-51,"dy":117.5,"t":22516},{"dx":-19,"dy":77.5,"t":22554},{"dx":-25,"dy":59.5,"t":22617},{"dx":-31,"dy":69.5,"t":22655},{"dx":-74,"dy":63.5,"t":22724},{"dx":-90,"dy":63.5,"t":22772},{"dx":-1,"dy":117.5,"t":22842},{"dx":27,"dy":179.5,"t":22883},{"dx":5,"dy":166.5,"t":23003},{"dx":9,"dy":161.5,"t":23042},{"dx":41,"dy":274.5,"t":23102},{"dx":92,"dy":367.5,"t":23139},{"dx":56,"dy":347.5,"t":23201},{"dx":22,"dy":288.5,"t":23240},{"dx":-6,"dy":191.5,"t":23302},{"dx":-5,"dy":150.5,"t":23341},{"dx":12,"dy":170.5,"t":23402},{"dx":4,"dy":168.5,"t":23441},{"dx":-5,"dy":183.5,"t":23505},{"dx":18,"dy":196.5,"t":23542},{"dx":69,"dy":193.5,"t":23607},{"dx":96,"dy":187.5,"t":23646},{"dx":109,"dy":181.5,"t":23708},{"dx":115,"dy":175.5,"t":23747},{"dx":142,"dy":150.5,"t":23829},{"dx":158,"dy":145.5,"t":23871},{"dx":74,"dy":119.5,"t":23934},{"dx":71,"dy":122.5,"t":23972},{"dx":16,"dy":146.5,"t":24033},{"dx":-20,"dy":166.5,"t":24072},{"dx":-29,"dy":144.5,"t":24133},{"dx":-2,"dy":150.5,"t":24170},{"dx":-10,"dy":148.5,"t":24233},{"dx":5,"dy":123.5,"t":24272},{"dx":13,"dy":75.5,"t":24312}],[{"dx":141,"dy":164.5,"t":25375},{"dx":188,"dy":136.5,"t":25375},{"dx":227,"dy":112.5,"t":25414},{"dx":188,"dy":72.5,"t":25474},{"dx":188,"dy":59.5,"t":25509},{"dx":121,"dy":60.5,"t":25568},{"dx":87,"dy":55.5,"t":25603},{"dx":63,"dy":24.5,"t":25663},{"dx":55,"dy":11.5,"t":25700},{"dx":54,"dy":-0.5,"t":25764},{"dx":28,"dy":-16.5,"t":25799},{"dx":9,"dy":-14.5,"t":25861},{"dx":4,"dy":-18.5,"t":25899},{"dx":45,"dy":-19.5,"t":25962},{"dx":76,"dy":-14.5,"t":26000},{"dx":80,"dy":14.5,"t":26060},{"dx":89,"dy":18.5,"t":26103},{"dx":41,"dy":14.5,"t":26163},{"dx":15,"dy":9.5,"t":26200},{"dx":37,"dy":15.5,"t":26261},{"dx":45,"dy":24.5,"t":26300},{"dx":64,"dy":65.5,"t":26363},{"dx":50,"dy":99.5,"t":26398},{"dx":91,"dy":85.5,"t":26460},{"dx":99,"dy":56.5,"t":26499},{"dx":153,"dy":84.5,"t":26563},{"dx":169,"dy":73.5,"t":26602},{"dx":144,"dy":95.5,"t":26664},{"dx":132,"dy":103.5,"t":26704},{"dx":165,"dy":166.5,"t":26769},{"dx":202,"dy":212.5,"t":26807},{"dx":142,"dy":247.5,"t":26870},{"dx":132,"dy":218.5,"t":26908},{"dx":117,"dy":167.5,"t":26973},{"dx":129,"dy":150.5,"t":27012},{"dx":127,"dy":148.5,"t":27077},{"dx":119,"dy":157.5,"t":27116},{"dx":97,"dy":136.5,"t":27191},{"dx":96,"dy":123.5,"t":27230},{"dx":83,"dy":87.5,"t":27298},{"dx":76,"dy":76.5,"t":27345},{"dx":70,"dy":40.5,"t":27393}],[{"dx":-306,"dy":141,"t":28391},{"dx":-254,"dy":110,"t":28429},{"dx":-208,"dy":91,"t":28489},{"dx":-170,"dy":75,"t":28528},{"dx":-150,"dy":90,"t":28590},{"dx":-123,"dy":102,"t":28628},{"dx":-39,"dy":70,"t":28688},{"dx":-18,"dy":58,"t":28728},{"dx":11,"dy":42,"t":28790},{"dx":11,"dy":29,"t":28829},{"dx":11,"dy":10,"t":28890},{"dx":11,"dy":4,"t":28926},{"dx":-4,"dy":14,"t":28989},{"dx":-16,"dy":28,"t":29025},{"dx":-22,"dy":41,"t":29087},{"dx":-30,"dy":55,"t":29124},{"dx":12,"dy":61,"t":29187},{"dx":56,"dy":62,"t":29224},{"dx":78,"dy":51,"t":29289},{"dx":83,"dy":52,"t":29326},{"dx":79,"dy":46,"t":29386},{"dx":72,"dy":45,"t":29426},{"dx":43,"dy":65,"t":29490},{"dx":24,"dy":83,"t":29528},{"dx":-21,"dy":99,"t":29590},{"dx":-33,"dy":114,"t":29627},{"dx":22,"dy":63,"t":29691},{"dx":21,"dy":57,"t":29727},{"dx":71,"dy":43,"t":29788},{"dx":98,"dy":39,"t":29827},{"dx":51,"dy":1,"t":29886},{"dx":23,"dy":-24,"t":29925},{"dx":6,"dy":19,"t":29997},{"dx":-14,"dy":34,"t":30035},{"dx":2,"dy":52,"t":30096},{"dx":-23,"dy":74,"t":30138},{"dx":-3,"dy":97,"t":30201},{"dx":15,"dy":100,"t":30240},{"dx":15,"dy":112,"t":30307},{"dx":17,"dy":114,"t":30349},{"dx":29,"dy":119,"t":30385}],[{"dx":-327,"dy":-41,"t":31446},{"dx":-315,"dy":-29,"t":31446},{"dx":-306,"dy":-19,"t":31486},{"dx":-359,"dy":11,"t":31547},{"dx":-411,"dy":29,"t":31587},{"dx":-552,"dy":84,"t":31651},{"dx":-596,"dy":66,"t":31687},{"dx":-635,"dy":27,"t":31748},{"dx":-634,"dy":-14,"t":31786},{"dx":-599,"dy":-34,"t":31855},{"dx":-570,"dy":-51,"t":31894},{"dx":-520,"dy":-45,"t":31957},{"dx":-496,"dy":-38,"t":31995},{"dx":-422,"dy":-55,"t":32058},{"dx":-373,"dy":-64,"t":32095},{"dx":-332,"dy":-73,"t":32156},{"dx":-326,"dy":-52,"t":32194},{"dx":-346,"dy":-49,"t":32255},{"dx":-418,"dy":-25,"t":32294},{"dx":-539,"dy":62,"t":32357},{"dx":-583,"dy":105,"t":32395},{"dx":-631,"dy":88,"t":32455},{"dx":-658,"dy":56,"t":32491},{"dx":-673,"dy":17,"t":32552},{"dx":-663,"dy":3,"t":32589},{"dx":-561,"dy":-46,"t":32654},{"dx":-551,"dy":-44,"t":32691},{"dx":-508,"dy":-60,"t":32760},{"dx":-494,"dy":-71,"t":32799},{"dx":-544,"dy":-14,"t":32865},{"dx":-564,"dy":35,"t":32903},{"dx":-557,"dy":37,"t":32972},{"dx":-561,"dy":2,"t":33014},{"dx":-573,"dy":-21,"t":33077},{"dx":-591,"dy":-44,"t":33115},{"dx":-510,"dy":-67,"t":33179},{"dx":-467,"dy":-71,"t":33217},{"dx":-412,"dy":-75,"t":33278},{"dx":-411,"dy":-69,"t":33315},{"dx":-426,"dy":-59,"t":33383},{"dx":-439,"dy":-56,"t":33397}],[{"dx":-303,"dy":283,"t":34385},{"dx":-251,"dy":168,"t":34477},{"dx":-206,"dy":113,"t":34512},{"dx":-136,"dy":29,"t":34574},{"dx":-123,"dy":9,"t":34612},{"dx":-99,"dy":32,"t":34674},{"dx":-87,"dy":37,"t":34712},{"dx":-76,"dy":58,"t":34778},{"dx":-83,"dy":56,"t":34816},{"dx":-149,"dy":182,"t":34876},{"dx":-234,"dy":292,"t":34915},{"dx":-348,"dy":446,"t":34976},{"dx":-394,"dy":506,"t":35012},{"dx":-387,"dy":484,"t":35073},{"dx":-365,"dy":420,"t":35114},{"dx":-284,"dy":379,"t":35177},{"dx":-249,"dy":316,"t":35217},{"dx":-170,"dy":231,"t":35278},{"dx":-148,"dy":198,"t":35316},{"dx":-86,"dy":150,"t":35376},{"dx":-53,"dy":134,"t":35415},{"dx":2,"dy":98,"t":35477},{"dx":16,"dy":70,"t":35513},{"dx":6,"dy":35,"t":35574},{"dx":2,"dy":26,"t":35616},{"dx":10,"dy":38,"t":35679},{"dx":19,"dy":33,"t":35716},{"dx":-1,"dy":70,"t":35778},{"dx":-11,"dy":91,"t":35820},{"dx":-16,"dy":126,"t":35882},{"dx":-6,"dy":137,"t":35917},{"dx":-87,"dy":269,"t":35981},{"dx":-165,"dy":387,"t":36016},{"dx":-281,"dy":488,"t":36076},{"dx":-276,"dy":478,"t":36114},{"dx":-259,"dy":448,"t":36175},{"dx":-238,"dy":381,"t":36211},{"dx":-220,"dy":289,"t":36274},{"dx":-208,"dy":225,"t":36312},{"dx":-193,"dy":197,"t":36373},{"dx":-179,"dy":184,"t":36414},{"dx":-156,"dy":156,"t":36454}],[{"dx":-41,"dy":294.5,"t":37508},{"dx":-8,"dy":248.5,"t":37508},{"dx":19,"dy":210.5,"t":37546},{"dx":-37,"dy":276.5,"t":37611},{"dx":-67,"dy":343.5,"t":37647},{"dx":-160,"dy":361.5,"t":37709},{"dx":-134,"dy":312.5,"t":37746},{"dx":-108,"dy":308.5,"t":37820},{"dx":-81,"dy":306.5,"t":37913},{"dx":-79,"dy":377.5,"t":37978},{"dx":-91,"dy":430.5,"t":38016},{"dx":-197,"dy":445.5,"t":38084},{"dx":-186,"dy":407.5,"t":38121},{"dx":-155,"dy":354.5,"t":38187},{"dx":-112,"dy":341.5,"t":38225},{"dx":-63,"dy":312.5,"t":38295},{"dx":-23,"dy":281.5,"t":38334},{"dx":2,"dy":263.5,"t":38396},{"dx":24,"dy":257.5,"t":38436},{"dx":26,"dy":258.5,"t":38499},{"dx":12,"dy":265.5,"t":38536},{"dx":-16,"dy":219.5,"t":38601},{"dx":-42,"dy":174.5,"t":38639},{"dx":-15,"dy":181.5,"t":38703},{"dx":10,"dy":182.5,"t":38739},{"dx":56,"dy":224.5,"t":38800},{"dx":70,"dy":242.5,"t":38838},{"dx":87,"dy":222.5,"t":38900},{"dx":103,"dy":211.5,"t":38937},{"dx":86,"dy":176.5,"t":39002},{"dx":73,"dy":156.5,"t":39038},{"dx":-11,"dy":150.5,"t":39101},{"dx":-89,"dy":148.5,"t":39136},{"dx":-89,"dy":165.5,"t":39196},{"dx":-116,"dy":172.5,"t":39235},{"dx":-103,"dy":182.5,"t":39298},{"dx":-89,"dy":169.5,"t":39335},{"dx":-62,"dy":168.5,"t":39399}]],"percent_in_roi":[85.71428571428571,75.67567567567568,60.86956521739131,56.41025641025641,13.88888888888889,90,51.21951219512195,35.8974358974359,54.761904761904766,85.36585365853658,0,40.476190476190474,0],"average_offset":[{"x":-66.6,"y":74.41428571428571,"r":59.84810705751142},{"x":14.567567567567568,"y":112.78378378378379,"r":64.65054684007116},{"x":-42.82608695652174,"y":67.78260869565217,"r":135.34718361835812},{"x":4.282051282051282,"y":136.74358974358975,"r":119.7413523098493},{"x":176.16666666666666,"y":-106.16666666666667,"r":195.25246030502956},{"x":59.86666666666667,"y":-59.4,"r":90.48514297472573},{"x":-58.926829268292686,"y":181.85365853658536,"r":106.85528138573122},{"x":6.82051282051282,"y":162.9102564102564,"r":79.98458513553152},{"x":100.9047619047619,"y":78.76190476190476,"r":118.30357140948762},{"x":-13.975609756097562,"y":61.90243902439025,"r":57.059749307867975},{"x":-498.8536585365854,"y":-16.195121951219512,"r":98.79708683179149},{"x":-154.0952380952381,"y":208.3095238095238,"r":269.1330350668151},{"x":-42.26315789473684,"y":258.10526315789474,"r":147.06798219707048}],"samples_per_sec":"17.59","clicks":25,"pattern":"spread","trial_type":"webgazer-validate","trial_index":31,"time_elapsed":394605,"internal_node_id":"0.0-10.0-3.3","validation_points":[[62.5,62.5],[25,25],[50,50],[15,15],[15,85],[25,75],[75,25],[37.5,37.5],[37.5,62.5],[75,75],[85,85],[85,15],[62.5,37.5]],"user_agent":"Mozilla/5.0 (Macintosh; Intel Mac OS X 10_14_6) AppleWebKit/537.36 (KHTML, like Gecko) Chrome/88.0.4324.192 Safari/537.36","screen_width_px":1440,"screen_height_px":900},{"rt":1732.460000028368,"stimulus":"\n      <p>Round complete.</p>\n      <p>You can move a little bit, but please try to return you head to the same general location before continuing.</p>\n    ","response":0,"trial_type":"html-button-response","trial_index":32,"time_elapsed":396340,"internal_node_id":"0.0-10.0-4.3","user_agent":"Mozilla/5.0 (Macintosh; Intel Mac OS X 10_14_6) AppleWebKit/537.36 (KHTML, like Gecko) Chrome/88.0.4324.192 Safari/537.36","screen_width_px":1440,"screen_height_px":900},{"trial_type":"webgazer-init-camera","trial_index":33,"time_elapsed":401332,"internal_node_id":"0.0-10.0-5.3","user_agent":"Mozilla/5.0 (Macintosh; Intel Mac OS X 10_14_6) AppleWebKit/537.36 (KHTML, like Gecko) Chrome/88.0.4324.192 Safari/537.36","screen_width_px":1440,"screen_height_px":900},{"rt":1394.670000008773,"stimulus":"\n      <p>Calibration phase next.</p>\n      <p>Click on the dots.</p>\n    ","response":0,"trial_type":"html-button-response","trial_index":34,"time_elapsed":402729,"internal_node_id":"0.0-10.0-0.4","user_agent":"Mozilla/5.0 (Macintosh; Intel Mac OS X 10_14_6) AppleWebKit/537.36 (KHTML, like Gecko) Chrome/88.0.4324.192 Safari/537.36","screen_width_px":1440,"screen_height_px":900},{"trial_type":"webgazer-calibrate","trial_index":35,"time_elapsed":423304,"internal_node_id":"0.0-10.0-1.4","user_agent":"Mozilla/5.0 (Macintosh; Intel Mac OS X 10_14_6) AppleWebKit/537.36 (KHTML, like Gecko) Chrome/88.0.4324.192 Safari/537.36","screen_width_px":1440,"screen_height_px":900},{"rt":999.004999990575,"stimulus":"\n      <p>Validation phase next.</p>\n      <p>Look at the dots.</p>\n    ","response":0,"trial_type":"html-button-response","trial_index":36,"time_elapsed":424304,"internal_node_id":"0.0-10.0-2.4","user_agent":"Mozilla/5.0 (Macintosh; Intel Mac OS X 10_14_6) AppleWebKit/537.36 (KHTML, like Gecko) Chrome/88.0.4324.192 Safari/537.36","screen_width_px":1440,"screen_height_px":900},{"raw_gaze":[[{"dx":-44,"dy":273,"t":1111},{"dx":-18,"dy":250,"t":1174},{"dx":-5,"dy":223,"t":1211},{"dx":28,"dy":111,"t":1275},{"dx":51,"dy":54,"t":1312},{"dx":64,"dy":-25,"t":1374},{"dx":58,"dy":-50,"t":1414},{"dx":-20,"dy":-91,"t":1476},{"dx":-44,"dy":-123,"t":1510},{"dx":-85,"dy":-144,"t":1573},{"dx":-93,"dy":-148,"t":1611},{"dx":-137,"dy":-137,"t":1675},{"dx":-168,"dy":-126,"t":1711},{"dx":-114,"dy":-124,"t":1778},{"dx":-107,"dy":-118,"t":1814},{"dx":-57,"dy":-113,"t":1877},{"dx":-29,"dy":-123,"t":1912},{"dx":11,"dy":-142,"t":1977},{"dx":25,"dy":-150,"t":2013},{"dx":-9,"dy":-125,"t":2077},{"dx":-31,"dy":-103,"t":2117},{"dx":-70,"dy":-79,"t":2180},{"dx":-87,"dy":-75,"t":2217},{"dx":-118,"dy":-77,"t":2278},{"dx":-131,"dy":-83,"t":2314},{"dx":-73,"dy":-104,"t":2375},{"dx":-46,"dy":-118,"t":2411},{"dx":-51,"dy":-118,"t":2475},{"dx":-62,"dy":-108,"t":2513},{"dx":-53,"dy":-119,"t":2576},{"dx":-46,"dy":-130,"t":2614},{"dx":-31,"dy":-126,"t":2675},{"dx":-34,"dy":-118,"t":2711},{"dx":-26,"dy":-105,"t":2774},{"dx":-12,"dy":-96,"t":2809},{"dx":-48,"dy":21,"t":2870},{"dx":-71,"dy":109,"t":2910},{"dx":-53,"dy":274,"t":2977},{"dx":-58,"dy":364,"t":3015},{"dx":-96,"dy":340,"t":3083},{"dx":-98,"dy":265,"t":3099}],[{"dx":66,"dy":225,"t":4132},{"dx":50,"dy":192,"t":4171},{"dx":15,"dy":133,"t":4236},{"dx":-3,"dy":108,"t":4273},{"dx":-18,"dy":79,"t":4335},{"dx":-18,"dy":74,"t":4379},{"dx":-12,"dy":71,"t":4499},{"dx":8,"dy":82,"t":4534},{"dx":10,"dy":92,"t":4601},{"dx":19,"dy":98,"t":4637},{"dx":67,"dy":109,"t":4699},{"dx":102,"dy":117,"t":4737},{"dx":122,"dy":103,"t":4800},{"dx":124,"dy":93,"t":4844},{"dx":107,"dy":87,"t":4907},{"dx":112,"dy":104,"t":4942},{"dx":107,"dy":134,"t":5002},{"dx":109,"dy":152,"t":5038},{"dx":116,"dy":167,"t":5101},{"dx":118,"dy":161,"t":5135},{"dx":88,"dy":171,"t":5198},{"dx":78,"dy":189,"t":5236},{"dx":56,"dy":206,"t":5299},{"dx":44,"dy":207,"t":5338},{"dx":71,"dy":194,"t":5403},{"dx":94,"dy":181,"t":5439},{"dx":109,"dy":129,"t":5531},{"dx":101,"dy":110,"t":5569},{"dx":124,"dy":130,"t":5630},{"dx":103,"dy":119,"t":5670},{"dx":108,"dy":141,"t":5737},{"dx":103,"dy":157,"t":5770},{"dx":96,"dy":184,"t":5831},{"dx":94,"dy":195,"t":5869},{"dx":37,"dy":174,"t":5931},{"dx":51,"dy":177,"t":5967},{"dx":57,"dy":187,"t":6029},{"dx":52,"dy":192,"t":6069},{"dx":31,"dy":188,"t":6107}],[{"dx":-339,"dy":32,"t":7101},{"dx":-517,"dy":136,"t":7196},{"dx":-525,"dy":127,"t":7233},{"dx":-481,"dy":102,"t":7296},{"dx":-446,"dy":79,"t":7337},{"dx":-403,"dy":-26,"t":7402},{"dx":-368,"dy":-49,"t":7443},{"dx":-321,"dy":-120,"t":7524},{"dx":-297,"dy":-146,"t":7566},{"dx":-224,"dy":-170,"t":7637},{"dx":-199,"dy":-186,"t":7683},{"dx":-253,"dy":-86,"t":7751},{"dx":-341,"dy":2,"t":7789},{"dx":-558,"dy":132,"t":7856},{"dx":-603,"dy":171,"t":7895},{"dx":-631,"dy":169,"t":7958},{"dx":-588,"dy":132,"t":7996},{"dx":-506,"dy":43,"t":8059},{"dx":-458,"dy":7,"t":8098},{"dx":-375,"dy":-79,"t":8161},{"dx":-338,"dy":-119,"t":8197},{"dx":-274,"dy":-155,"t":8260},{"dx":-269,"dy":-182,"t":8298},{"dx":-286,"dy":-223,"t":8361},{"dx":-298,"dy":-250,"t":8399},{"dx":-265,"dy":-236,"t":8461},{"dx":-237,"dy":-222,"t":8496},{"dx":-281,"dy":-246,"t":8560},{"dx":-312,"dy":-249,"t":8596},{"dx":-312,"dy":-254,"t":8658},{"dx":-306,"dy":-248,"t":8696},{"dx":-311,"dy":-240,"t":8757},{"dx":-313,"dy":-238,"t":8793},{"dx":-322,"dy":-246,"t":8857},{"dx":-321,"dy":-244,"t":8896},{"dx":-292,"dy":-219,"t":8962},{"dx":-295,"dy":-215,"t":8998},{"dx":-290,"dy":-215,"t":9064},{"dx":-297,"dy":-223,"t":9106},{"dx":-289,"dy":-223,"t":9149}],[{"dx":102,"dy":109,"t":10131},{"dx":130,"dy":40,"t":10224},{"dx":127,"dy":-1,"t":10258},{"dx":110,"dy":-54,"t":10323},{"dx":79,"dy":-82,"t":10359},{"dx":69,"dy":-119,"t":10421},{"dx":65,"dy":-130,"t":10458},{"dx":91,"dy":-55,"t":10521},{"dx":117,"dy":11,"t":10557},{"dx":141,"dy":102,"t":10617},{"dx":169,"dy":127,"t":10657},{"dx":233,"dy":113,"t":10719},{"dx":247,"dy":85,"t":10758},{"dx":252,"dy":18,"t":10824},{"dx":244,"dy":-15,"t":10862},{"dx":223,"dy":-39,"t":10923},{"dx":221,"dy":-67,"t":10960},{"dx":168,"dy":-120,"t":11019},{"dx":161,"dy":-134,"t":11056},{"dx":198,"dy":-124,"t":11118},{"dx":208,"dy":-124,"t":11155},{"dx":173,"dy":-125,"t":11217},{"dx":151,"dy":-121,"t":11261},{"dx":182,"dy":-62,"t":11323},{"dx":174,"dy":-53,"t":11361},{"dx":125,"dy":-70,"t":11422},{"dx":120,"dy":-66,"t":11460},{"dx":134,"dy":-92,"t":11519},{"dx":130,"dy":-99,"t":11556},{"dx":113,"dy":-110,"t":11618},{"dx":105,"dy":-115,"t":11653},{"dx":99,"dy":-124,"t":11718},{"dx":122,"dy":-119,"t":11754},{"dx":161,"dy":-99,"t":11817},{"dx":172,"dy":-91,"t":11861},{"dx":177,"dy":-98,"t":11922},{"dx":185,"dy":-103,"t":11959},{"dx":187,"dy":-100,"t":12020},{"dx":182,"dy":-100,"t":12060},{"dx":195,"dy":-107,"t":12123},{"dx":208,"dy":-103,"t":12167},{"dx":172,"dy":-114,"t":12210}],[{"dx":159,"dy":61,"t":13226},{"dx":173,"dy":36,"t":13264},{"dx":147,"dy":-29,"t":13332},{"dx":124,"dy":-58,"t":13371},{"dx":55,"dy":-104,"t":13438},{"dx":29,"dy":-117,"t":13479},{"dx":-8,"dy":-103,"t":13546},{"dx":-16,"dy":-94,"t":13584},{"dx":-9,"dy":-91,"t":13647},{"dx":-16,"dy":-86,"t":13683},{"dx":-9,"dy":-81,"t":13750},{"dx":0,"dy":-80,"t":13787},{"dx":13,"dy":-80,"t":13847},{"dx":29,"dy":-84,"t":13884},{"dx":26,"dy":-77,"t":13947},{"dx":35,"dy":-73,"t":13983},{"dx":68,"dy":-69,"t":14047},{"dx":87,"dy":-72,"t":14084},{"dx":72,"dy":-82,"t":14149},{"dx":67,"dy":-86,"t":14183},{"dx":52,"dy":-91,"t":14245},{"dx":43,"dy":-94,"t":14280},{"dx":27,"dy":-101,"t":14343},{"dx":30,"dy":-110,"t":14381},{"dx":3,"dy":-112,"t":14444},{"dx":9,"dy":-117,"t":14482},{"dx":-14,"dy":-125,"t":14549},{"dx":-18,"dy":-129,"t":14587},{"dx":41,"dy":-42,"t":14654},{"dx":95,"dy":35,"t":14693},{"dx":129,"dy":133,"t":14760},{"dx":136,"dy":153,"t":14801},{"dx":135,"dy":154,"t":14873},{"dx":138,"dy":127,"t":14913},{"dx":116,"dy":55,"t":14975},{"dx":113,"dy":26,"t":15012},{"dx":94,"dy":-14,"t":15074},{"dx":87,"dy":-27,"t":15112},{"dx":56,"dy":-15,"t":15176},{"dx":41,"dy":-13,"t":15215},{"dx":-3,"dy":-49,"t":15254}],[{"dx":22,"dy":67.5,"t":16287},{"dx":-13,"dy":42.5,"t":16323},{"dx":-47,"dy":-10.5,"t":16385},{"dx":-55,"dy":-29.5,"t":16421},{"dx":-52,"dy":120.5,"t":16483},{"dx":-68,"dy":264.5,"t":16518},{"dx":-56,"dy":320.5,"t":16579},{"dx":-53,"dy":257.5,"t":16617},{"dx":-37,"dy":200.5,"t":16679},{"dx":-62,"dy":161.5,"t":16715},{"dx":-72,"dy":51.5,"t":16777},{"dx":-71,"dy":14.5,"t":16814},{"dx":-32,"dy":-56.5,"t":16880},{"dx":-26,"dy":-78.5,"t":16922},{"dx":-18,"dy":-89.5,"t":16987},{"dx":-15,"dy":-82.5,"t":17027},{"dx":-38,"dy":-75.5,"t":17095},{"dx":-51,"dy":-70.5,"t":17136},{"dx":-27,"dy":-79.5,"t":17204},{"dx":-14,"dy":-75.5,"t":17242},{"dx":40,"dy":-55.5,"t":17307},{"dx":42,"dy":-43.5,"t":17344},{"dx":71,"dy":-34.5,"t":17410},{"dx":54,"dy":-40.5,"t":17447},{"dx":44,"dy":-37.5,"t":17510},{"dx":45,"dy":-41.5,"t":17549},{"dx":26,"dy":-51.5,"t":17612},{"dx":9,"dy":-56.5,"t":17648},{"dx":-14,"dy":-60.5,"t":17713},{"dx":-20,"dy":-60.5,"t":17750},{"dx":-22,"dy":-52.5,"t":17811},{"dx":-8,"dy":-41.5,"t":17847},{"dx":-38,"dy":-25.5,"t":17909},{"dx":-75,"dy":-19.5,"t":17944},{"dx":-75,"dy":-3.5,"t":18005},{"dx":-99,"dy":10.5,"t":18041},{"dx":-106,"dy":-3.5,"t":18107},{"dx":-139,"dy":-8.5,"t":18144},{"dx":-87,"dy":-21.5,"t":18205},{"dx":-77,"dy":-26.5,"t":18245},{"dx":-16,"dy":-37.5,"t":18285}],[{"dx":-188,"dy":152.5,"t":19357},{"dx":-218,"dy":252.5,"t":19426},{"dx":-171,"dy":250.5,"t":19467},{"dx":-137,"dy":178.5,"t":19532},{"dx":-128,"dy":139.5,"t":19570},{"dx":-61,"dy":53.5,"t":19637},{"dx":-20,"dy":6.5,"t":19674},{"dx":-10,"dy":-32.5,"t":19734},{"dx":-18,"dy":-45.5,"t":19770},{"dx":-44,"dy":-73.5,"t":19833},{"dx":-68,"dy":-78.5,"t":19873},{"dx":-52,"dy":-86.5,"t":19936},{"dx":-15,"dy":-100.5,"t":19972},{"dx":-12,"dy":-124.5,"t":20035},{"dx":-21,"dy":-130.5,"t":20069},{"dx":-24,"dy":-138.5,"t":20131},{"dx":-26,"dy":-140.5,"t":20167},{"dx":-43,"dy":-158.5,"t":20231},{"dx":-51,"dy":-170.5,"t":20268},{"dx":-48,"dy":-121.5,"t":20331},{"dx":-59,"dy":-102.5,"t":20368},{"dx":-75,"dy":-86.5,"t":20436},{"dx":-93,"dy":-83.5,"t":20473},{"dx":-129,"dy":-77.5,"t":20556},{"dx":-147,"dy":-74.5,"t":20596},{"dx":-145,"dy":-63.5,"t":20662},{"dx":-130,"dy":-55.5,"t":20722},{"dx":-49,"dy":-67.5,"t":20791},{"dx":-35,"dy":-70.5,"t":20842},{"dx":-26,"dy":-76.5,"t":20912},{"dx":-42,"dy":-82.5,"t":20955},{"dx":-39,"dy":-93.5,"t":21030},{"dx":-57,"dy":-105.5,"t":21076},{"dx":-91,"dy":-114.5,"t":21146},{"dx":-106,"dy":-111.5,"t":21188},{"dx":-93,"dy":-116.5,"t":21263},{"dx":-83,"dy":-123.5,"t":21307},{"dx":-38,"dy":-142.5,"t":21352}],[{"dx":-73,"dy":7.5,"t":22359},{"dx":-57,"dy":-8.5,"t":22397},{"dx":-55,"dy":-37.5,"t":22457},{"dx":-65,"dy":-42.5,"t":22493},{"dx":-77,"dy":-60.5,"t":22556},{"dx":-89,"dy":-72.5,"t":22592},{"dx":-71,"dy":-89.5,"t":22658},{"dx":-67,"dy":-102.5,"t":22719},{"dx":-79,"dy":-87.5,"t":22789},{"dx":-102,"dy":-73.5,"t":22833},{"dx":-113,"dy":-74.5,"t":22899},{"dx":-117,"dy":-71.5,"t":22936},{"dx":-90,"dy":-79.5,"t":23015},{"dx":-73,"dy":-88.5,"t":23055},{"dx":-36,"dy":-90.5,"t":23123},{"dx":-16,"dy":-86.5,"t":23158},{"dx":-16,"dy":-86.5,"t":23228},{"dx":-26,"dy":-91.5,"t":23265},{"dx":-48,"dy":-82.5,"t":23327},{"dx":-70,"dy":-87.5,"t":23364},{"dx":-92,"dy":-71.5,"t":23430},{"dx":-86,"dy":-56.5,"t":23466},{"dx":-103,"dy":-53.5,"t":23529},{"dx":-105,"dy":-55.5,"t":23572},{"dx":-77,"dy":-55.5,"t":23633},{"dx":-60,"dy":-58.5,"t":23688},{"dx":-7,"dy":-57.5,"t":23754},{"dx":-17,"dy":-55.5,"t":23791},{"dx":-20,"dy":-47.5,"t":23853},{"dx":-14,"dy":-43.5,"t":23893},{"dx":-7,"dy":-25.5,"t":23953},{"dx":-5,"dy":-14.5,"t":23993},{"dx":-13,"dy":-8.5,"t":24055},{"dx":-21,"dy":-11.5,"t":24093},{"dx":-9,"dy":-19.5,"t":24159},{"dx":12,"dy":-20.5,"t":24195},{"dx":43,"dy":-24.5,"t":24258},{"dx":44,"dy":-37.5,"t":24293},{"dx":-14,"dy":-33.5,"t":24356},{"dx":-37,"dy":-21.5,"t":24371}],[{"dx":-79,"dy":-183,"t":25369},{"dx":-71,"dy":-143,"t":25463},{"dx":-89,"dy":-105,"t":25501},{"dx":-153,"dy":-10,"t":25562},{"dx":-172,"dy":66,"t":25599},{"dx":-237,"dy":77,"t":25662},{"dx":-257,"dy":26,"t":25699},{"dx":-245,"dy":-24,"t":25765},{"dx":-247,"dy":-55,"t":25802},{"dx":-188,"dy":-93,"t":25864},{"dx":-175,"dy":-125,"t":25901},{"dx":-140,"dy":-152,"t":25965},{"dx":-127,"dy":-159,"t":26002},{"dx":-102,"dy":-159,"t":26065},{"dx":-69,"dy":-160,"t":26104},{"dx":-53,"dy":-186,"t":26171},{"dx":-45,"dy":-194,"t":26210},{"dx":-45,"dy":-195,"t":26277},{"dx":-43,"dy":-196,"t":26315},{"dx":-25,"dy":-201,"t":26378},{"dx":-11,"dy":-202,"t":26418},{"dx":-82,"dy":-227,"t":26482},{"dx":-102,"dy":-234,"t":26520},{"dx":-110,"dy":-222,"t":26584},{"dx":-115,"dy":-212,"t":26626},{"dx":-80,"dy":-206,"t":26693},{"dx":-58,"dy":-204,"t":26731},{"dx":-15,"dy":-196,"t":26798},{"dx":-6,"dy":-191,"t":26839},{"dx":2,"dy":-191,"t":26909},{"dx":2,"dy":-195,"t":26948},{"dx":-29,"dy":-215,"t":27015},{"dx":-51,"dy":-219,"t":27052},{"dx":-58,"dy":-220,"t":27117},{"dx":-48,"dy":-218,"t":27157},{"dx":-11,"dy":-204,"t":27221},{"dx":-4,"dy":-211,"t":27259},{"dx":7,"dy":-214,"t":27321},{"dx":11,"dy":-243,"t":27362},{"dx":-14,"dy":-249,"t":27404}],[{"dx":25,"dy":7,"t":28445},{"dx":34,"dy":-19,"t":28445},{"dx":41,"dy":-38,"t":28480},{"dx":60,"dy":-57,"t":28543},{"dx":77,"dy":-58,"t":28580},{"dx":72,"dy":-69,"t":28641},{"dx":55,"dy":-77,"t":28679},{"dx":33,"dy":-91,"t":28741},{"dx":43,"dy":-99,"t":28778},{"dx":31,"dy":-91,"t":28842},{"dx":25,"dy":-80,"t":28880},{"dx":38,"dy":-77,"t":28944},{"dx":45,"dy":-75,"t":28981},{"dx":49,"dy":-73,"t":29043},{"dx":47,"dy":-73,"t":29080},{"dx":64,"dy":-41,"t":29144},{"dx":80,"dy":-14,"t":29181},{"dx":94,"dy":34,"t":29245},{"dx":94,"dy":54,"t":29283},{"dx":124,"dy":69,"t":29346},{"dx":130,"dy":71,"t":29383},{"dx":157,"dy":74,"t":29444},{"dx":176,"dy":74,"t":29480},{"dx":198,"dy":76,"t":29542},{"dx":203,"dy":77,"t":29577},{"dx":156,"dy":83,"t":29641},{"dx":119,"dy":70,"t":29679},{"dx":168,"dy":45,"t":29740},{"dx":174,"dy":40,"t":29779},{"dx":169,"dy":27,"t":29839},{"dx":165,"dy":29,"t":29876},{"dx":157,"dy":-8,"t":29938},{"dx":129,"dy":-36,"t":29975},{"dx":100,"dy":-21,"t":30039},{"dx":114,"dy":-2,"t":30076},{"dx":115,"dy":3,"t":30138},{"dx":112,"dy":-2,"t":30174},{"dx":112,"dy":-22,"t":30239},{"dx":114,"dy":-34,"t":30276},{"dx":24,"dy":148,"t":30337},{"dx":-71,"dy":300,"t":30379},{"dx":-126,"dy":438,"t":30419}],[{"dx":117,"dy":94,"t":31471},{"dx":178,"dy":76,"t":31471},{"dx":226,"dy":63,"t":31508},{"dx":273,"dy":50,"t":31567},{"dx":268,"dy":46,"t":31607},{"dx":280,"dy":65,"t":31670},{"dx":286,"dy":68,"t":31705},{"dx":252,"dy":47,"t":31768},{"dx":253,"dy":44,"t":31807},{"dx":236,"dy":53,"t":31868},{"dx":234,"dy":70,"t":31904},{"dx":228,"dy":87,"t":31968},{"dx":228,"dy":92,"t":32008},{"dx":218,"dy":106,"t":32073},{"dx":209,"dy":106,"t":32110},{"dx":224,"dy":111,"t":32172},{"dx":232,"dy":110,"t":32208},{"dx":239,"dy":118,"t":32269},{"dx":238,"dy":121,"t":32303},{"dx":224,"dy":110,"t":32366},{"dx":212,"dy":85,"t":32402},{"dx":184,"dy":32,"t":32464},{"dx":169,"dy":6,"t":32501},{"dx":174,"dy":23,"t":32565},{"dx":171,"dy":34,"t":32604},{"dx":185,"dy":45,"t":32674},{"dx":173,"dy":55,"t":32714},{"dx":185,"dy":103,"t":32780},{"dx":182,"dy":117,"t":32819},{"dx":167,"dy":132,"t":32885},{"dx":148,"dy":126,"t":32922},{"dx":102,"dy":143,"t":32999},{"dx":46,"dy":150,"t":33041},{"dx":52,"dy":156,"t":33102},{"dx":61,"dy":153,"t":33153},{"dx":133,"dy":153,"t":33219},{"dx":188,"dy":156,"t":33258},{"dx":215,"dy":151,"t":33327},{"dx":207,"dy":140,"t":33367},{"dx":208,"dy":124,"t":33433},{"dx":208,"dy":116,"t":33450}],[{"dx":-72,"dy":213,"t":34461},{"dx":-43,"dy":257,"t":34562},{"dx":-50,"dy":225,"t":34599},{"dx":-94,"dy":200,"t":34664},{"dx":-106,"dy":190,"t":34702},{"dx":-81,"dy":145,"t":34764},{"dx":-70,"dy":131,"t":34802},{"dx":-52,"dy":120,"t":34863},{"dx":-46,"dy":118,"t":34898},{"dx":-33,"dy":115,"t":34961},{"dx":-26,"dy":114,"t":34998},{"dx":-1,"dy":102,"t":35059},{"dx":-9,"dy":102,"t":35098},{"dx":36,"dy":218,"t":35160},{"dx":82,"dy":318,"t":35197},{"dx":117,"dy":411,"t":35265},{"dx":114,"dy":407,"t":35305},{"dx":107,"dy":322,"t":35371},{"dx":66,"dy":263,"t":35411},{"dx":46,"dy":191,"t":35477},{"dx":32,"dy":164,"t":35524},{"dx":7,"dy":115,"t":35590},{"dx":-1,"dy":100,"t":35629},{"dx":-21,"dy":74,"t":35699},{"dx":-34,"dy":59,"t":35738},{"dx":-16,"dy":46,"t":35805},{"dx":12,"dy":35,"t":35843},{"dx":13,"dy":21,"t":35909},{"dx":-8,"dy":17,"t":35948},{"dx":-15,"dy":29,"t":36018},{"dx":-11,"dy":38,"t":36057},{"dx":5,"dy":47,"t":36122},{"dx":8,"dy":51,"t":36160},{"dx":10,"dy":80,"t":36221},{"dx":9,"dy":102,"t":36260},{"dx":-7,"dy":116,"t":36334},{"dx":-19,"dy":117,"t":36372},{"dx":-20,"dy":120,"t":36440},{"dx":-12,"dy":121,"t":36455}],[{"dx":-1,"dy":177.5,"t":37530},{"dx":-2,"dy":130.5,"t":37530},{"dx":-3,"dy":89.5,"t":37572},{"dx":3,"dy":28.5,"t":37637},{"dx":16,"dy":7.5,"t":37689},{"dx":15,"dy":-30.5,"t":37756},{"dx":5,"dy":-47.5,"t":37792},{"dx":-72,"dy":111.5,"t":37858},{"dx":-140,"dy":265.5,"t":37899},{"dx":-209,"dy":372.5,"t":37964},{"dx":-181,"dy":345.5,"t":38002},{"dx":-115,"dy":262.5,"t":38072},{"dx":-70,"dy":200.5,"t":38110},{"dx":-11,"dy":99.5,"t":38178},{"dx":-4,"dy":63.5,"t":38220},{"dx":23,"dy":4.5,"t":38285},{"dx":40,"dy":-20.5,"t":38324},{"dx":69,"dy":-48.5,"t":38385},{"dx":83,"dy":-56.5,"t":38422},{"dx":60,"dy":-69.5,"t":38485},{"dx":44,"dy":-71.5,"t":38525},{"dx":28,"dy":-70.5,"t":38585},{"dx":27,"dy":-66.5,"t":38623},{"dx":19,"dy":-59.5,"t":38698},{"dx":17,"dy":-54.5,"t":38734},{"dx":-4,"dy":-46.5,"t":38796},{"dx":-20,"dy":-44.5,"t":38833},{"dx":0,"dy":-39.5,"t":38895},{"dx":13,"dy":-41.5,"t":38931},{"dx":32,"dy":-50.5,"t":38993},{"dx":43,"dy":-57.5,"t":39033},{"dx":71,"dy":-70.5,"t":39094},{"dx":86,"dy":-74.5,"t":39132},{"dx":91,"dy":-82.5,"t":39197},{"dx":85,"dy":-82.5,"t":39234},{"dx":-14,"dy":-90.5,"t":39294},{"dx":-66,"dy":-94.5,"t":39330},{"dx":-84,"dy":-94.5,"t":39394}]],"percent_in_roi":[63.41463414634146,28.205128205128204,0,26.190476190476193,85.36585365853658,87.8048780487805,71.05263157894737,100,2.5,71.42857142857143,0,64.1025641025641,84.21052631578947],"average_offset":[{"x":-48.48780487804878,"y":-24.73170731707317,"r":107.76371027222444},{"x":69.17948717948718,"y":143.89743589743588,"r":51.78522377772836},{"x":-358.525,"y":-104.425,"r":217.63666165874457},{"x":157.66666666666666,"y":-60.23809523809524,"r":100.1394028028463},{"x":56.97560975609756,"y":-42.073170731707314,"r":73.08719214853619},{"x":-30,"y":3.451219512195122,"r":78.45786465280236},{"x":-73.47368421052632,"y":-53.05263157894737,"r":102.43266199480257},{"x":-48.2,"y":-54.45,"r":67.89265885985043},{"x":-83.35,"y":-161.1,"r":108.31147326712444},{"x":88.71428571428571,"y":13.380952380952381,"r":118.58457169899094},{"x":195.4390243902439,"y":93.58536585365853,"r":50.62606848484292},{"x":-4.6923076923076925,"y":143.94871794871796,"r":84.49530329411198},{"x":-3.3157894736842106,"y":18.263157894736842,"r":143.3363318784758}],"samples_per_sec":"19.59","clicks":15,"pattern":"spread","trial_type":"webgazer-validate","trial_index":37,"time_elapsed":464723,"internal_node_id":"0.0-10.0-3.4","validation_points":[[50,50],[15,15],[85,85],[15,85],[25,75],[37.5,37.5],[62.5,62.5],[37.5,62.5],[75,75],[75,25],[85,15],[25,25],[62.5,37.5]],"user_agent":"Mozilla/5.0 (Macintosh; Intel Mac OS X 10_14_6) AppleWebKit/537.36 (KHTML, like Gecko) Chrome/88.0.4324.192 Safari/537.36","screen_width_px":1440,"screen_height_px":900},{"rt":1924.529999960214,"stimulus":"\n      <p>Round complete.</p>\n      <p>You can move a little bit, but please try to return you head to the same general location before continuing.</p>\n    ","response":0,"trial_type":"html-button-response","trial_index":38,"time_elapsed":466651,"internal_node_id":"0.0-10.0-4.4","user_agent":"Mozilla/5.0 (Macintosh; Intel Mac OS X 10_14_6) AppleWebKit/537.36 (KHTML, like Gecko) Chrome/88.0.4324.192 Safari/537.36","screen_width_px":1440,"screen_height_px":900},{"trial_type":"webgazer-init-camera","trial_index":39,"time_elapsed":470077,"internal_node_id":"0.0-10.0-5.4","user_agent":"Mozilla/5.0 (Macintosh; Intel Mac OS X 10_14_6) AppleWebKit/537.36 (KHTML, like Gecko) Chrome/88.0.4324.192 Safari/537.36","screen_width_px":1440,"screen_height_px":900},{"rt":1061.6750000044703,"stimulus":"\n      <p>Calibration phase next.</p>\n      <p>Click on the dots.</p>\n    ","response":0,"trial_type":"html-button-response","trial_index":40,"time_elapsed":471140,"internal_node_id":"0.0-10.0-0.5","user_agent":"Mozilla/5.0 (Macintosh; Intel Mac OS X 10_14_6) AppleWebKit/537.36 (KHTML, like Gecko) Chrome/88.0.4324.192 Safari/537.36","screen_width_px":1440,"screen_height_px":900},{"trial_type":"webgazer-calibrate","trial_index":41,"time_elapsed":509817,"internal_node_id":"0.0-10.0-1.5","user_agent":"Mozilla/5.0 (Macintosh; Intel Mac OS X 10_14_6) AppleWebKit/537.36 (KHTML, like Gecko) Chrome/88.0.4324.192 Safari/537.36","screen_width_px":1440,"screen_height_px":900},{"rt":1485.9600000199862,"stimulus":"\n      <p>Validation phase next.</p>\n      <p>Look at the dots.</p>\n    ","response":0,"trial_type":"html-button-response","trial_index":42,"time_elapsed":511305,"internal_node_id":"0.0-10.0-2.5","user_agent":"Mozilla/5.0 (Macintosh; Intel Mac OS X 10_14_6) AppleWebKit/537.36 (KHTML, like Gecko) Chrome/88.0.4324.192 Safari/537.36","screen_width_px":1440,"screen_height_px":900},{"raw_gaze":[[{"dx":188,"dy":366.5,"t":1098},{"dx":146,"dy":359.5,"t":1146},{"dx":50,"dy":304.5,"t":1255},{"dx":18,"dy":283.5,"t":1296},{"dx":-50,"dy":228.5,"t":1400},{"dx":-81,"dy":231.5,"t":1468},{"dx":-88,"dy":167.5,"t":1636},{"dx":-144,"dy":119.5,"t":1732},{"dx":-49,"dy":105.5,"t":1864},{"dx":6,"dy":83.5,"t":1927},{"dx":-43,"dy":73.5,"t":2025},{"dx":-19,"dy":55.5,"t":2089},{"dx":-23,"dy":57.5,"t":2195},{"dx":-28,"dy":65.5,"t":2246},{"dx":-52,"dy":25.5,"t":2321},{"dx":-74,"dy":-0.5,"t":2365},{"dx":-57,"dy":30.5,"t":2433},{"dx":-33,"dy":57.5,"t":2472},{"dx":25,"dy":95.5,"t":2540},{"dx":-6,"dy":89.5,"t":2580},{"dx":-17,"dy":107.5,"t":2654},{"dx":5,"dy":104.5,"t":2698},{"dx":-13,"dy":124.5,"t":2779},{"dx":-30,"dy":144.5,"t":2820},{"dx":-20,"dy":163.5,"t":2891},{"dx":-12,"dy":187.5,"t":2934},{"dx":114,"dy":214.5,"t":3018},{"dx":276,"dy":232.5,"t":3064},{"dx":365,"dy":316.5,"t":3104}],[{"dx":161,"dy":121.5,"t":4176},{"dx":201,"dy":133.5,"t":4176},{"dx":240,"dy":141.5,"t":4220},{"dx":192,"dy":124.5,"t":4288},{"dx":167,"dy":116.5,"t":4339},{"dx":87,"dy":90.5,"t":4404},{"dx":59,"dy":74.5,"t":4443},{"dx":43,"dy":56.5,"t":4509},{"dx":61,"dy":58.5,"t":4550},{"dx":17,"dy":72.5,"t":4626},{"dx":-7,"dy":93.5,"t":4664},{"dx":-20,"dy":116.5,"t":4732},{"dx":-11,"dy":114.5,"t":4771},{"dx":-9,"dy":63.5,"t":4843},{"dx":-15,"dy":44.5,"t":4889},{"dx":13,"dy":35.5,"t":4963},{"dx":35,"dy":40.5,"t":4999},{"dx":57,"dy":51.5,"t":5068},{"dx":61,"dy":61.5,"t":5107},{"dx":55,"dy":60.5,"t"