[{"rt":1513.825000001816,"stimulus":"\n      <p>You can elect whether to include your data in our research dataset.</p>\n    ","response":0,"question":"consent","trial_type":"html-button-response","trial_index":0,"time_elapsed":1518,"internal_node_id":"0.0-0.0","user_agent":"Mozilla/5.0 (Macintosh; Intel Mac OS X 10_14_4) AppleWebKit/537.36 (KHTML, like Gecko) Chrome/88.0.4324.192 Safari/537.36","screen_width_px":1440,"screen_height_px":900},{"rt":41935.59000000823,"stimulus":"\n      <p>This experiment uses your camera for eye tracking.</p>\n      <p>No video is saved from this experiment. The only data recorded are predictions about where you are looking.</p>\n      <p>Before we begin, there are a few things to do that can improve the accuracy of the eye tracking.</p>\n    ","response":0,"trial_type":"html-button-response","trial_index":1,"time_elapsed":43457,"internal_node_id":"0.0-1.0","user_agent":"Mozilla/5.0 (Macintosh; Intel Mac OS X 10_14_4) AppleWebKit/537.36 (KHTML, like Gecko) Chrome/88.0.4324.192 Safari/537.36","screen_width_px":1440,"screen_height_px":900},{"rt":1337.1550000010757,"stimulus":"\n      <p>If you wear glasses and can complete the task without them, please remove your glasses.</p>\n    ","response":0,"trial_type":"html-button-response","trial_index":2,"time_elapsed":44797,"internal_node_id":"0.0-2.0","user_agent":"Mozilla/5.0 (Macintosh; Intel Mac OS X 10_14_4) AppleWebKit/537.36 (KHTML, like Gecko) Chrome/88.0.4324.192 Safari/537.36","screen_width_px":1440,"screen_height_px":900},{"rt":1159.7299999993993,"stimulus":"\n      <p>Please close additional browser tabs and apps running in the background.<br>The eye tracker works best when there are fewer things running at the same time.</p>\n    ","response":0,"trial_type":"html-button-response","trial_index":3,"time_elapsed":45958,"internal_node_id":"0.0-3.0","user_agent":"Mozilla/5.0 (Macintosh; Intel Mac OS X 10_14_4) AppleWebKit/537.36 (KHTML, like Gecko) Chrome/88.0.4324.192 Safari/537.36","screen_width_px":1440,"screen_height_px":900},{"rt":1043.4100000129547,"stimulus":"\n      <p>Try to avoid bright lights behind you.<br>The eye tracker works best if your face is well lit from the front.<br>If you can, adjust the lighting in your room.</p>\n    ","response":0,"trial_type":"html-button-response","trial_index":4,"time_elapsed":47003,"internal_node_id":"0.0-4.0","user_agent":"Mozilla/5.0 (Macintosh; Intel Mac OS X 10_14_4) AppleWebKit/537.36 (KHTML, like Gecko) Chrome/88.0.4324.192 Safari/537.36","screen_width_px":1440,"screen_height_px":900},{"rt":918.1050000042887,"stimulus":"\n      <p>In order to participate you must allow the experiment to use your camera.</p>\n      <p>You will be prompted to do this on the next screen.</p>\n    ","response":0,"trial_type":"html-button-response","trial_index":5,"time_elapsed":47923,"internal_node_id":"0.0-5.0","user_agent":"Mozilla/5.0 (Macintosh; Intel Mac OS X 10_14_4) AppleWebKit/537.36 (KHTML, like Gecko) Chrome/88.0.4324.192 Safari/537.36","screen_width_px":1440,"screen_height_px":900},{"trial_type":"webgazer-init-camera","trial_index":6,"time_elapsed":68736,"internal_node_id":"0.0-6.0","user_agent":"Mozilla/5.0 (Macintosh; Intel Mac OS X 10_14_4) AppleWebKit/537.36 (KHTML, like Gecko) Chrome/88.0.4324.192 Safari/537.36","screen_width_px":1440,"screen_height_px":900},{"rt":1128.5199999983888,"stimulus":"\n      <p>Now you'll complete a series of calibrations and validations.</p>\n      <p>The calibration will be reset after each round, so it is OK to move a little bit<br>in between the end of a validation and the start of the next calibration.</p>\n      <p>Please keep your head still during each round.</p>\n    ","response":0,"trial_type":"html-button-response","trial_index":7,"time_elapsed":69866,"internal_node_id":"0.0-7.0","user_agent":"Mozilla/5.0 (Macintosh; Intel Mac OS X 10_14_4) AppleWebKit/537.36 (KHTML, like Gecko) Chrome/88.0.4324.192 Safari/537.36","screen_width_px":1440,"screen_height_px":900},{"success":true,"trial_type":"fullscreen","trial_index":8,"time_elapsed":71863,"internal_node_id":"0.0-8.0","user_agent":"Mozilla/5.0 (Macintosh; Intel Mac OS X 10_14_4) AppleWebKit/537.36 (KHTML, like Gecko) Chrome/88.0.4324.192 Safari/537.36","screen_width_px":1440,"screen_height_px":900},{"rt":1192.4100000032922,"stimulus":"\n      <p>During the calibration phase, please look at each dot and click on it.</p>\n      <p>During the validation phase, just look at each dot while it is on the screen.</p>\n    ","response":0,"trial_type":"html-button-response","trial_index":9,"time_elapsed":73057,"internal_node_id":"0.0-9.0","user_agent":"Mozilla/5.0 (Macintosh; Intel Mac OS X 10_14_4) AppleWebKit/537.36 (KHTML, like Gecko) Chrome/88.0.4324.192 Safari/537.36","screen_width_px":1440,"screen_height_px":900},{"rt":1120.4150000121444,"stimulus":"\n      <p>Calibration phase next.</p>\n      <p>Click on the dots.</p>\n    ","response":0,"trial_type":"html-button-response","trial_index":10,"time_elapsed":74178,"internal_node_id":"0.0-10.0-0.0","user_agent":"Mozilla/5.0 (Macintosh; Intel Mac OS X 10_14_4) AppleWebKit/537.36 (KHTML, like Gecko) Chrome/88.0.4324.192 Safari/537.36","screen_width_px":1440,"screen_height_px":900},{"trial_type":"webgazer-calibrate","trial_index":11,"time_elapsed":91491,"internal_node_id":"0.0-10.0-1.0","user_agent":"Mozilla/5.0 (Macintosh; Intel Mac OS X 10_14_4) AppleWebKit/537.36 (KHTML, like Gecko) Chrome/88.0.4324.192 Safari/537.36","screen_width_px":1440,"screen_height_px":900},{"rt":2823.000000003958,"stimulus":"\n      <p>Validation phase next.</p>\n      <p>Look at the dots.</p>\n    ","response":0,"trial_type":"html-button-response","trial_index":12,"time_elapsed":94314,"internal_node_id":"0.0-10.0-2.0","user_agent":"Mozilla/5.0 (Macintosh; Intel Mac OS X 10_14_4) AppleWebKit/537.36 (KHTML, like Gecko) Chrome/88.0.4324.192 Safari/537.36","screen_width_px":1440,"screen_height_px":900},{"raw_gaze":[[{"dx":192,"dy":-25.5,"t":1097},{"dx":221,"dy":14.5,"t":1149},{"dx":204,"dy":29.5,"t":1180},{"dx":228,"dy":38.5,"t":1236},{"dx":222,"dy":44.5,"t":1267},{"dx":184,"dy":15.5,"t":1320},{"dx":155,"dy":13.5,"t":1349},{"dx":185,"dy":-20.5,"t":1398},{"dx":209,"dy":-45.5,"t":1431},{"dx":171,"dy":-26.5,"t":1484},{"dx":153,"dy":-23.5,"t":1516},{"dx":156,"dy":6.5,"t":1565},{"dx":164,"dy":16.5,"t":1595},{"dx":199,"dy":37.5,"t":1646},{"dx":221,"dy":45.5,"t":1676},{"dx":116,"dy":70.5,"t":1730},{"dx":39,"dy":89.5,"t":1760},{"dx":70,"dy":56.5,"t":1818},{"dx":85,"dy":41.5,"t":1848},{"dx":114,"dy":-22.5,"t":1898},{"dx":137,"dy":-48.5,"t":1930},{"dx":168,"dy":-75.5,"t":1982},{"dx":167,"dy":-65.5,"t":2015},{"dx":226,"dy":-79.5,"t":2067},{"dx":246,"dy":-78.5,"t":2098},{"dx":141,"dy":-20.5,"t":2155},{"dx":89,"dy":31.5,"t":2186},{"dx":30,"dy":103.5,"t":2240},{"dx":20,"dy":153.5,"t":2269},{"dx":19,"dy":132.5,"t":2321},{"dx":61,"dy":117.5,"t":2354},{"dx":147,"dy":23.5,"t":2408},{"dx":197,"dy":-5.5,"t":2441},{"dx":267,"dy":-53.5,"t":2494},{"dx":295,"dy":-70.5,"t":2527},{"dx":333,"dy":-85.5,"t":2580},{"dx":346,"dy":-86.5,"t":2613},{"dx":344,"dy":-96.5,"t":2665},{"dx":335,"dy":-116.5,"t":2696},{"dx":311,"dy":-99.5,"t":2747},{"dx":289,"dy":-100.5,"t":2779},{"dx":270,"dy":-51.5,"t":2831},{"dx":255,"dy":-50.5,"t":2862},{"dx":295,"dy":-33.5,"t":2916},{"dx":295,"dy":0.5,"t":2947},{"dx":301,"dy":-25.5,"t":2998},{"dx":288,"dy":-42.5,"t":3029},{"dx":266,"dy":-34.5,"t":3086},{"dx":258,"dy":-15.5,"t":3096}],[{"dx":22,"dy":-89,"t":4103},{"dx":44,"dy":-107,"t":4154},{"dx":47,"dy":-116,"t":4185},{"dx":125,"dy":-30,"t":4239},{"dx":121,"dy":9,"t":4272},{"dx":133,"dy":30,"t":4325},{"dx":137,"dy":32,"t":4358},{"dx":154,"dy":53,"t":4408},{"dx":180,"dy":43,"t":4438},{"dx":152,"dy":55,"t":4491},{"dx":122,"dy":51,"t":4522},{"dx":118,"dy":8,"t":4575},{"dx":130,"dy":-15,"t":4606},{"dx":150,"dy":-36,"t":4657},{"dx":141,"dy":-48,"t":4688},{"dx":125,"dy":-44,"t":4738},{"dx":92,"dy":-9,"t":4769},{"dx":85,"dy":0,"t":4823},{"dx":104,"dy":-20,"t":4854},{"dx":112,"dy":19,"t":4909},{"dx":125,"dy":43,"t":4941},{"dx":117,"dy":50,"t":4995},{"dx":119,"dy":30,"t":5031},{"dx":120,"dy":-2,"t":5086},{"dx":136,"dy":-22,"t":5117},{"dx":149,"dy":5,"t":5173},{"dx":167,"dy":17,"t":5204},{"dx":142,"dy":36,"t":5256},{"dx":133,"dy":40,"t":5292},{"dx":80,"dy":44,"t":5343},{"dx":47,"dy":48,"t":5375},{"dx":46,"dy":46,"t":5428},{"dx":49,"dy":46,"t":5460},{"dx":98,"dy":22,"t":5516},{"dx":111,"dy":5,"t":5548},{"dx":101,"dy":18,"t":5600},{"dx":73,"dy":24,"t":5633},{"dx":98,"dy":4,"t":5687},{"dx":111,"dy":-2,"t":5725},{"dx":118,"dy":4,"t":5777},{"dx":112,"dy":-5,"t":5807},{"dx":102,"dy":-9,"t":5861},{"dx":98,"dy":-10,"t":5893},{"dx":111,"dy":-12,"t":5948},{"dx":125,"dy":-13,"t":5979},{"dx":122,"dy":21,"t":6031},{"dx":109,"dy":50,"t":6064},{"dx":156,"dy":44,"t":6096}],[{"dx":-304,"dy":228,"t":7123},{"dx":-317,"dy":212,"t":7154},{"dx":-387,"dy":191,"t":7209},{"dx":-436,"dy":191,"t":7240},{"dx":-490,"dy":197,"t":7290},{"dx":-510,"dy":200,"t":7319},{"dx":-525,"dy":157,"t":7370},{"dx":-528,"dy":160,"t":7402},{"dx":-463,"dy":124,"t":7457},{"dx":-429,"dy":108,"t":7491},{"dx":-381,"dy":116,"t":7543},{"dx":-363,"dy":123,"t":7573},{"dx":-385,"dy":145,"t":7624},{"dx":-403,"dy":155,"t":7655},{"dx":-407,"dy":195,"t":7708},{"dx":-396,"dy":221,"t":7739},{"dx":-356,"dy":189,"t":7792},{"dx":-338,"dy":139,"t":7827},{"dx":-303,"dy":101,"t":7882},{"dx":-284,"dy":100,"t":7912},{"dx":-281,"dy":94,"t":7966},{"dx":-296,"dy":92,"t":7999},{"dx":-303,"dy":99,"t":8054},{"dx":-317,"dy":87,"t":8085},{"dx":-311,"dy":108,"t":8137},{"dx":-302,"dy":116,"t":8167},{"dx":-297,"dy":121,"t":8217},{"dx":-281,"dy":116,"t":8249},{"dx":-282,"dy":110,"t":8301},{"dx":-313,"dy":99,"t":8335},{"dx":-355,"dy":99,"t":8388},{"dx":-371,"dy":104,"t":8419},{"dx":-405,"dy":131,"t":8471},{"dx":-414,"dy":148,"t":8501},{"dx":-392,"dy":119,"t":8554},{"dx":-403,"dy":107,"t":8585},{"dx":-403,"dy":106,"t":8634},{"dx":-392,"dy":91,"t":8666},{"dx":-391,"dy":55,"t":8718},{"dx":-406,"dy":46,"t":8749},{"dx":-385,"dy":42,"t":8803},{"dx":-363,"dy":46,"t":8837},{"dx":-330,"dy":59,"t":8891},{"dx":-319,"dy":67,"t":8966},{"dx":-301,"dy":66,"t":9021},{"dx":-294,"dy":58,"t":9050},{"dx":-292,"dy":98,"t":9104},{"dx":-288,"dy":109,"t":9114}],[{"dx":77,"dy":107,"t":10138},{"dx":79,"dy":119,"t":10167},{"dx":66,"dy":91,"t":10221},{"dx":52,"dy":78,"t":10254},{"dx":87,"dy":73,"t":10307},{"dx":99,"dy":59,"t":10339},{"dx":139,"dy":24,"t":10391},{"dx":154,"dy":12,"t":10421},{"dx":174,"dy":-18,"t":10474},{"dx":199,"dy":-35,"t":10505},{"dx":237,"dy":-35,"t":10557},{"dx":245,"dy":-43,"t":10587},{"dx":196,"dy":-24,"t":10641},{"dx":217,"dy":-12,"t":10673},{"dx":195,"dy":35,"t":10729},{"dx":191,"dy":38,"t":10763},{"dx":157,"dy":79,"t":10816},{"dx":121,"dy":96,"t":10852},{"dx":53,"dy":89,"t":10902},{"dx":38,"dy":72,"t":10931},{"dx":23,"dy":77,"t":10984},{"dx":20,"dy":94,"t":11014},{"dx":-9,"dy":113,"t":11066},{"dx":9,"dy":113,"t":11098},{"dx":32,"dy":110,"t":11147},{"dx":39,"dy":108,"t":11178},{"dx":92,"dy":121,"t":11227},{"dx":116,"dy":112,"t":11256},{"dx":181,"dy":86,"t":11308},{"dx":193,"dy":81,"t":11338},{"dx":286,"dy":88,"t":11391},{"dx":325,"dy":84,"t":11422},{"dx":291,"dy":82,"t":11472},{"dx":294,"dy":74,"t":11507},{"dx":314,"dy":68,"t":11557},{"dx":325,"dy":55,"t":11587},{"dx":299,"dy":43,"t":11636},{"dx":271,"dy":43,"t":11666},{"dx":259,"dy":18,"t":11716},{"dx":245,"dy":0,"t":11747},{"dx":198,"dy":17,"t":11799},{"dx":168,"dy":36,"t":11830},{"dx":127,"dy":50,"t":11881},{"dx":102,"dy":50,"t":11913},{"dx":47,"dy":90,"t":11965},{"dx":45,"dy":89,"t":11996},{"dx":84,"dy":95,"t":12047},{"dx":105,"dy":103,"t":12078},{"dx":110,"dy":121,"t":12134},{"dx":134,"dy":125,"t":12146}],[{"dx":65,"dy":98.5,"t":13177},{"dx":39,"dy":119.5,"t":13204},{"dx":20,"dy":102.5,"t":13254},{"dx":22,"dy":94.5,"t":13286},{"dx":26,"dy":117.5,"t":13338},{"dx":36,"dy":134.5,"t":13368},{"dx":45,"dy":136.5,"t":13418},{"dx":30,"dy":122.5,"t":13450},{"dx":-14,"dy":92.5,"t":13500},{"dx":-41,"dy":76.5,"t":13532},{"dx":-39,"dy":58.5,"t":13583},{"dx":-24,"dy":52.5,"t":13614},{"dx":32,"dy":43.5,"t":13667},{"dx":38,"dy":32.5,"t":13697},{"dx":47,"dy":46.5,"t":13748},{"dx":49,"dy":38.5,"t":13779},{"dx":42,"dy":126.5,"t":13833},{"dx":34,"dy":174.5,"t":13865},{"dx":-25,"dy":235.5,"t":13916},{"dx":-66,"dy":241.5,"t":13948},{"dx":-19,"dy":229.5,"t":13999},{"dx":-6,"dy":225.5,"t":14044},{"dx":-3,"dy":168.5,"t":14093},{"dx":-2,"dy":152.5,"t":14123},{"dx":-13,"dy":119.5,"t":14177},{"dx":-26,"dy":115.5,"t":14209},{"dx":-13,"dy":116.5,"t":14260},{"dx":-4,"dy":125.5,"t":14291},{"dx":13,"dy":116.5,"t":14341},{"dx":13,"dy":111.5,"t":14377},{"dx":8,"dy":79.5,"t":14474},{"dx":7,"dy":63.5,"t":14504},{"dx":-2,"dy":56.5,"t":14557},{"dx":-7,"dy":71.5,"t":14587},{"dx":-19,"dy":79.5,"t":14644},{"dx":-25,"dy":81.5,"t":14677},{"dx":-20,"dy":92.5,"t":14730},{"dx":-10,"dy":99.5,"t":14762},{"dx":-11,"dy":122.5,"t":14814},{"dx":-23,"dy":132.5,"t":14845},{"dx":-34,"dy":155.5,"t":14899},{"dx":-20,"dy":155.5,"t":14929},{"dx":-13,"dy":129.5,"t":14978},{"dx":-29,"dy":132.5,"t":15008},{"dx":-41,"dy":146.5,"t":15059},{"dx":-40,"dy":159.5,"t":15089},{"dx":-33,"dy":164.5,"t":15141},{"dx":-19,"dy":164.5,"t":15158}],[{"dx":-39,"dy":196,"t":16174},{"dx":-26,"dy":166,"t":16204},{"dx":-41,"dy":195,"t":16255},{"dx":-58,"dy":208,"t":16286},{"dx":-89,"dy":240,"t":16339},{"dx":-104,"dy":266,"t":16369},{"dx":-121,"dy":321,"t":16423},{"dx":-133,"dy":331,"t":16464},{"dx":-129,"dy":254,"t":16517},{"dx":-138,"dy":229,"t":16549},{"dx":-83,"dy":162,"t":16600},{"dx":-46,"dy":142,"t":16631},{"dx":-13,"dy":123,"t":16684},{"dx":-13,"dy":121,"t":16717},{"dx":-2,"dy":104,"t":16770},{"dx":14,"dy":88,"t":16800},{"dx":11,"dy":91,"t":16851},{"dx":4,"dy":90,"t":16880},{"dx":3,"dy":88,"t":16934},{"dx":9,"dy":86,"t":16965},{"dx":15,"dy":104,"t":17017},{"dx":15,"dy":119,"t":17048},{"dx":-9,"dy":160,"t":17100},{"dx":-28,"dy":161,"t":17129},{"dx":-63,"dy":187,"t":17181},{"dx":-63,"dy":195,"t":17214},{"dx":-39,"dy":188,"t":17267},{"dx":-19,"dy":178,"t":17297},{"dx":-6,"dy":138,"t":17353},{"dx":5,"dy":114,"t":17382},{"dx":-9,"dy":99,"t":17435},{"dx":-29,"dy":106,"t":17465},{"dx":-65,"dy":148,"t":17518},{"dx":-76,"dy":158,"t":17551},{"dx":-51,"dy":159,"t":17604},{"dx":-35,"dy":164,"t":17638},{"dx":-24,"dy":189,"t":17690},{"dx":-23,"dy":200,"t":17720},{"dx":-16,"dy":197,"t":17772},{"dx":-15,"dy":199,"t":17802},{"dx":-52,"dy":201,"t":17852},{"dx":-55,"dy":181,"t":17885},{"dx":-77,"dy":195,"t":17936},{"dx":-78,"dy":197,"t":17965},{"dx":-94,"dy":199,"t":18019},{"dx":-110,"dy":199,"t":18052},{"dx":-92,"dy":150,"t":18105},{"dx":-91,"dy":124,"t":18140},{"dx":-77,"dy":149,"t":18169}],[{"dx":-205,"dy":220,"t":19156},{"dx":-196,"dy":216,"t":19235},{"dx":-175,"dy":207,"t":19268},{"dx":-124,"dy":139,"t":19321},{"dx":-90,"dy":103,"t":19352},{"dx":-75,"dy":61,"t":19407},{"dx":-88,"dy":53,"t":19437},{"dx":-89,"dy":63,"t":19491},{"dx":-71,"dy":65,"t":19522},{"dx":-73,"dy":59,"t":19573},{"dx":-82,"dy":59,"t":19611},{"dx":-124,"dy":67,"t":19664},{"dx":-147,"dy":77,"t":19694},{"dx":-179,"dy":66,"t":19743},{"dx":-194,"dy":59,"t":19776},{"dx":-193,"dy":68,"t":19828},{"dx":-202,"dy":87,"t":19860},{"dx":-200,"dy":105,"t":19911},{"dx":-193,"dy":105,"t":19941},{"dx":-171,"dy":105,"t":19992},{"dx":-187,"dy":103,"t":20024},{"dx":-233,"dy":83,"t":20080},{"dx":-220,"dy":79,"t":20110},{"dx":-182,"dy":80,"t":20163},{"dx":-157,"dy":82,"t":20193},{"dx":-130,"dy":80,"t":20244},{"dx":-120,"dy":85,"t":20273},{"dx":-86,"dy":103,"t":20323},{"dx":-73,"dy":120,"t":20354},{"dx":-58,"dy":130,"t":20407},{"dx":-55,"dy":125,"t":20441},{"dx":-63,"dy":107,"t":20494},{"dx":-75,"dy":100,"t":20525},{"dx":-64,"dy":86,"t":20582},{"dx":-51,"dy":83,"t":20664},{"dx":-72,"dy":99,"t":20716},{"dx":-89,"dy":114,"t":20748},{"dx":-133,"dy":93,"t":20800},{"dx":-123,"dy":70,"t":20833},{"dx":-116,"dy":30,"t":20884},{"dx":-88,"dy":9,"t":20914},{"dx":-64,"dy":39,"t":20963},{"dx":-66,"dy":47,"t":20995},{"dx":-159,"dy":80,"t":21048},{"dx":-214,"dy":106,"t":21078},{"dx":-237,"dy":123,"t":21130},{"dx":-228,"dy":113,"t":21165},{"dx":-176,"dy":45,"t":21201}],[{"dx":99,"dy":-67,"t":22185},{"dx":121,"dy":-50,"t":22265},{"dx":134,"dy":-34,"t":22296},{"dx":132,"dy":9,"t":22348},{"dx":130,"dy":34,"t":22378},{"dx":130,"dy":79,"t":22429},{"dx":130,"dy":98,"t":22462},{"dx":141,"dy":131,"t":22515},{"dx":138,"dy":127,"t":22547},{"dx":112,"dy":164,"t":22598},{"dx":96,"dy":186,"t":22630},{"dx":73,"dy":204,"t":22685},{"dx":61,"dy":209,"t":22717},{"dx":116,"dy":225,"t":22769},{"dx":142,"dy":221,"t":22802},{"dx":145,"dy":170,"t":22855},{"dx":167,"dy":133,"t":22888},{"dx":156,"dy":62,"t":22941},{"dx":168,"dy":45,"t":22971},{"dx":171,"dy":29,"t":23025},{"dx":159,"dy":7,"t":23066},{"dx":172,"dy":11,"t":23122},{"dx":185,"dy":8,"t":23153},{"dx":200,"dy":64,"t":23206},{"dx":203,"dy":128,"t":23240},{"dx":210,"dy":170,"t":23293},{"dx":230,"dy":176,"t":23324},{"dx":175,"dy":163,"t":23380},{"dx":132,"dy":163,"t":23411},{"dx":109,"dy":166,"t":23462},{"dx":83,"dy":194,"t":23493},{"dx":44,"dy":170,"t":23542},{"dx":46,"dy":120,"t":23574},{"dx":59,"dy":76,"t":23626},{"dx":56,"dy":75,"t":23659},{"dx":66,"dy":70,"t":23712},{"dx":54,"dy":68,"t":23742},{"dx":110,"dy":-10,"t":23798},{"dx":113,"dy":5,"t":23829},{"dx":150,"dy":92,"t":23883},{"dx":171,"dy":132,"t":23914},{"dx":178,"dy":213,"t":23968},{"dx":169,"dy":252,"t":23998},{"dx":157,"dy":214,"t":24051},{"dx":159,"dy":135,"t":24084},{"dx":170,"dy":117,"t":24137},{"dx":174,"dy":100,"t":24172},{"dx":123,"dy":80,"t":24201}],[{"dx":323,"dy":-70.5,"t":25263},{"dx":350,"dy":-74.5,"t":25263},{"dx":371,"dy":-78.5,"t":25291},{"dx":361,"dy":-91.5,"t":25340},{"dx":337,"dy":-100.5,"t":25370},{"dx":286,"dy":-83.5,"t":25421},{"dx":286,"dy":-77.5,"t":25450},{"dx":217,"dy":-51.5,"t":25502},{"dx":194,"dy":-50.5,"t":25534},{"dx":177,"dy":-46.5,"t":25587},{"dx":159,"dy":-43.5,"t":25621},{"dx":145,"dy":-7.5,"t":25677},{"dx":146,"dy":21.5,"t":25710},{"dx":129,"dy":28.5,"t":25766},{"dx":112,"dy":14.5,"t":25801},{"dx":143,"dy":11.5,"t":25853},{"dx":155,"dy":11.5,"t":25883},{"dx":186,"dy":11.5,"t":25934},{"dx":221,"dy":12.5,"t":25972},{"dx":266,"dy":18.5,"t":26025},{"dx":276,"dy":22.5,"t":26056},{"dx":241,"dy":5.5,"t":26110},{"dx":234,"dy":14.5,"t":26143},{"dx":188,"dy":32.5,"t":26194},{"dx":154,"dy":41.5,"t":26225},{"dx":129,"dy":22.5,"t":26275},{"dx":190,"dy":10.5,"t":26306},{"dx":156,"dy":-20.5,"t":26362},{"dx":129,"dy":-28.5,"t":26391},{"dx":160,"dy":-33.5,"t":26443},{"dx":147,"dy":-34.5,"t":26479},{"dx":142,"dy":-8.5,"t":26579},{"dx":171,"dy":-10.5,"t":26609},{"dx":275,"dy":40.5,"t":26661},{"dx":323,"dy":54.5,"t":26690},{"dx":313,"dy":49.5,"t":26742},{"dx":300,"dy":34.5,"t":26771},{"dx":272,"dy":25.5,"t":26824},{"dx":238,"dy":25.5,"t":26854},{"dx":220,"dy":-12.5,"t":26908},{"dx":222,"dy":-31.5,"t":26938},{"dx":213,"dy":-27.5,"t":26987},{"dx":208,"dy":-32.5,"t":27023},{"dx":194,"dy":-0.5,"t":27076},{"dx":189,"dy":8.5,"t":27107},{"dx":215,"dy":-6.5,"t":27159},{"dx":235,"dy":-47.5,"t":27192},{"dx":222,"dy":-46.5,"t":27221}],[{"dx":283,"dy":-50,"t":28250},{"dx":278,"dy":-43,"t":28280},{"dx":288,"dy":-13,"t":28332},{"dx":292,"dy":-11,"t":28362},{"dx":261,"dy":14,"t":28413},{"dx":244,"dy":17,"t":28443},{"dx":195,"dy":13,"t":28496},{"dx":160,"dy":8,"t":28528},{"dx":120,"dy":6,"t":28578},{"dx":132,"dy":5,"t":28609},{"dx":136,"dy":-10,"t":28659},{"dx":160,"dy":-43,"t":28690},{"dx":183,"dy":-47,"t":28742},{"dx":176,"dy":-46,"t":28773},{"dx":203,"dy":-51,"t":28826},{"dx":225,"dy":-37,"t":28861},{"dx":254,"dy":-42,"t":28913},{"dx":275,"dy":-48,"t":28945},{"dx":277,"dy":-19,"t":28998},{"dx":269,"dy":-15,"t":29032},{"dx":221,"dy":-42,"t":29085},{"dx":217,"dy":-32,"t":29116},{"dx":205,"dy":-33,"t":29170},{"dx":201,"dy":-24,"t":29203},{"dx":206,"dy":-52,"t":29256},{"dx":190,"dy":-47,"t":29285},{"dx":192,"dy":-6,"t":29337},{"dx":212,"dy":15,"t":29367},{"dx":207,"dy":-6,"t":29419},{"dx":211,"dy":-53,"t":29451},{"dx":214,"dy":-65,"t":29507},{"dx":211,"dy":-45,"t":29540},{"dx":209,"dy":-19,"t":29594},{"dx":210,"dy":-11,"t":29625},{"dx":236,"dy":5,"t":29677},{"dx":253,"dy":6,"t":29708},{"dx":250,"dy":-46,"t":29761},{"dx":239,"dy":-52,"t":29792},{"dx":211,"dy":-42,"t":29846},{"dx":209,"dy":-58,"t":29877},{"dx":167,"dy":-44,"t":29931},{"dx":171,"dy":-7,"t":29961},{"dx":178,"dy":-28,"t":30011},{"dx":155,"dy":-37,"t":30041},{"dx":165,"dy":-28,"t":30095},{"dx":179,"dy":-29,"t":30131},{"dx":188,"dy":1,"t":30188},{"dx":224,"dy":-26,"t":30224},{"dx":229,"dy":19,"t":30259}],[{"dx":60,"dy":12,"t":31286},{"dx":75,"dy":31,"t":31319},{"dx":176,"dy":-6,"t":31372},{"dx":208,"dy":-20,"t":31406},{"dx":228,"dy":-5,"t":31460},{"dx":218,"dy":-9,"t":31492},{"dx":208,"dy":-7,"t":31545},{"dx":212,"dy":-18,"t":31576},{"dx":205,"dy":-25,"t":31628},{"dx":215,"dy":-20,"t":31663},{"dx":206,"dy":-13,"t":31718},{"dx":205,"dy":-13,"t":31749},{"dx":211,"dy":-24,"t":31803},{"dx":220,"dy":-35,"t":31842},{"dx":138,"dy":-46,"t":31893},{"dx":126,"dy":-40,"t":31925},{"dx":141,"dy":-57,"t":31978},{"dx":195,"dy":-65,"t":32011},{"dx":226,"dy":-75,"t":32064},{"dx":232,"dy":-86,"t":32094},{"dx":186,"dy":-68,"t":32145},{"dx":166,"dy":-86,"t":32175},{"dx":191,"dy":-75,"t":32225},{"dx":183,"dy":-68,"t":32256},{"dx":242,"dy":-50,"t":32307},{"dx":271,"dy":-67,"t":32337},{"dx":228,"dy":-38,"t":32389},{"dx":223,"dy":-36,"t":32419},{"dx":209,"dy":-44,"t":32472},{"dx":185,"dy":-42,"t":32503},{"dx":175,"dy":-37,"t":32555},{"dx":170,"dy":-44,"t":32586},{"dx":193,"dy":-81,"t":32638},{"dx":176,"dy":-97,"t":32720},{"dx":180,"dy":-117,"t":32770},{"dx":187,"dy":-95,"t":32802},{"dx":160,"dy":-40,"t":32853},{"dx":152,"dy":-8,"t":32883},{"dx":199,"dy":-17,"t":32934},{"dx":219,"dy":-24,"t":32963},{"dx":230,"dy":-34,"t":33016},{"dx":218,"dy":-52,"t":33046},{"dx":191,"dy":-61,"t":33097},{"dx":161,"dy":-61,"t":33126},{"dx":130,"dy":-82,"t":33176},{"dx":131,"dy":-106,"t":33210},{"dx":112,"dy":-87,"t":33265},{"dx":124,"dy":-78,"t":33279}],[{"dx":61,"dy":-55,"t":34283},{"dx":96,"dy":-49,"t":34332},{"dx":107,"dy":-60,"t":34362},{"dx":122,"dy":-60,"t":34414},{"dx":118,"dy":-48,"t":34444},{"dx":27,"dy":-30,"t":34494},{"dx":-29,"dy":-22,"t":34526},{"dx":-36,"dy":40,"t":34576},{"dx":-24,"dy":61,"t":34607},{"dx":-43,"dy":44,"t":34658},{"dx":-48,"dy":29,"t":34689},{"dx":-40,"dy":2,"t":34741},{"dx":-28,"dy":-5,"t":34771},{"dx":37,"dy":5,"t":34821},{"dx":78,"dy":-2,"t":34853},{"dx":107,"dy":10,"t":34904},{"dx":100,"dy":25,"t":34935},{"dx":43,"dy":53,"t":34985},{"dx":0,"dy":65,"t":35021},{"dx":-82,"dy":44,"t":35073},{"dx":-108,"dy":30,"t":35105},{"dx":-122,"dy":-2,"t":35158},{"dx":-117,"dy":-12,"t":35189},{"dx":-130,"dy":-22,"t":35244},{"dx":-144,"dy":-26,"t":35277},{"dx":-110,"dy":10,"t":35325},{"dx":-93,"dy":23,"t":35357},{"dx":-104,"dy":5,"t":35411},{"dx":-93,"dy":7,"t":35445},{"dx":-150,"dy":-18,"t":35499},{"dx":-186,"dy":-22,"t":35532},{"dx":-183,"dy":-39,"t":35585},{"dx":-177,"dy":-41,"t":35619},{"dx":-182,"dy":-43,"t":35672},{"dx":-195,"dy":-2,"t":35703},{"dx":-185,"dy":-1,"t":35755},{"dx":-187,"dy":1,"t":35786},{"dx":-190,"dy":2,"t":35838},{"dx":-192,"dy":-4,"t":35868},{"dx":-171,"dy":18,"t":35921},{"dx":-182,"dy":21,"t":35953},{"dx":-176,"dy":10,"t":36008},{"dx":-180,"dy":-10,"t":36037},{"dx":-148,"dy":-2,"t":36089},{"dx":-144,"dy":-2,"t":36123},{"dx":-103,"dy":27,"t":36176},{"dx":-87,"dy":18,"t":36205},{"dx":-77,"dy":21,"t":36260},{"dx":-55,"dy":21,"t":36294},{"dx":-37,"dy":34,"t":36323}],[{"dx":117,"dy":-55.5,"t":37357},{"dx":115,"dy":-73.5,"t":37388},{"dx":146,"dy":-61.5,"t":37438},{"dx":174,"dy":-38.5,"t":37469},{"dx":205,"dy":-34.5,"t":37525},{"dx":211,"dy":-49.5,"t":37557},{"dx":215,"dy":-73.5,"t":37609},{"dx":213,"dy":-79.5,"t":37640},{"dx":208,"dy":-99.5,"t":37691},{"dx":202,"dy":-127.5,"t":37721},{"dx":189,"dy":-142.5,"t":37776},{"dx":198,"dy":-133.5,"t":37805},{"dx":191,"dy":-111.5,"t":37858},{"dx":193,"dy":-88.5,"t":37893},{"dx":186,"dy":-88.5,"t":37945},{"dx":181,"dy":-39.5,"t":37978},{"dx":177,"dy":-29.5,"t":38029},{"dx":166,"dy":-28.5,"t":38060},{"dx":134,"dy":-14.5,"t":38116},{"dx":115,"dy":-4.5,"t":38150},{"dx":88,"dy":21.5,"t":38202},{"dx":78,"dy":37.5,"t":38231},{"dx":84,"dy":29.5,"t":38283},{"dx":97,"dy":48.5,"t":38313},{"dx":121,"dy":70.5,"t":38364},{"dx":132,"dy":75.5,"t":38395},{"dx":105,"dy":63.5,"t":38446},{"dx":103,"dy":70.5,"t":38479},{"dx":88,"dy":43.5,"t":38535},{"dx":76,"dy":17.5,"t":38565},{"dx":78,"dy":-4.5,"t":38617},{"dx":89,"dy":-2.5,"t":38698},{"dx":91,"dy":-23.5,"t":38749},{"dx":86,"dy":-26.5,"t":38780},{"dx":123,"dy":-36.5,"t":38835},{"dx":129,"dy":-54.5,"t":38869},{"dx":160,"dy":-47.5,"t":38919},{"dx":179,"dy":-25.5,"t":38949},{"dx":184,"dy":4.5,"t":39002},{"dx":171,"dy":6.5,"t":39035},{"dx":138,"dy":24.5,"t":39086},{"dx":120,"dy":39.5,"t":39117},{"dx":109,"dy":51.5,"t":39168},{"dx":112,"dy":50.5,"t":39202},{"dx":110,"dy":15.5,"t":39255},{"dx":103,"dy":-4.5,"t":39283}]],"percent_in_roi":[24.489795918367346,87.5,0,42,72.91666666666666,30.612244897959183,50,27.083333333333332,16.666666666666664,6.122448979591836,12.5,72,54.347826086956516],"average_offset":[{"x":197.6326530612245,"y":-8.520408163265307,"r":76.4382680969049},{"x":111.85416666666667,"y":6.416666666666667,"r":55.81773139444315},{"x":-364.4166666666667,"y":121.77083333333333,"r":107.52093058794371},{"x":150.02,"y":63.02,"r":147.99976342925413},{"x":-1.5625,"y":119.02083333333333,"r":66.31960669763286},{"x":-46.02040816326531,"y":168.55102040816325,"r":43.46729898210456},{"x":-133.125,"y":91.625,"r":96.14386965569804},{"x":133.72916666666666,"y":106.95833333333333,"r":127.24739242302678},{"x":219.16666666666666,"y":-12.479166666666666,"r":98.43502583228104},{"x":211.6530612244898,"y":-24.448979591836736,"r":40.618879572918644},{"x":185.35416666666666,"y":-46.166666666666664,"r":60.91222950476393},{"x":-72.84,"y":0.98,"r":127.9477849267327},{"x":141.08695652173913,"y":-20.195652173913043,"r":97.75723925194092}],"samples_per_sec":"23.73","clicks":15,"pattern":"spread","trial_type":"webgazer-validate","trial_index":13,"time_elapsed":134619,"internal_node_id":"0.0-10.0-3.0","validation_points":[[37.5,62.5],[15,15],[85,85],[15,85],[62.5,62.5],[75,25],[75,75],[25,25],[37.5,37.5],[50,50],[25,75],[85,15],[62.5,37.5]],"user_agent":"Mozilla/5.0 (Macintosh; Intel Mac OS X 10_14_4) AppleWebKit/537.36 (KHTML, like Gecko) Chrome/88.0.4324.192 Safari/537.36","screen_width_px":1440,"screen_height_px":900},{"rt":3359.8649999912595,"stimulus":"\n      <p>Round complete.</p>\n      <p>You can move a little bit, but please try to return you head to the same general location before continuing.</p>\n    ","response":0,"trial_type":"html-button-response","trial_index":14,"time_elapsed":137981,"internal_node_id":"0.0-10.0-4.0","user_agent":"Mozilla/5.0 (Macintosh; Intel Mac OS X 10_14_4) AppleWebKit/537.36 (KHTML, like Gecko) Chrome/88.0.4324.192 Safari/537.36","screen_width_px":1440,"screen_height_px":900},{"trial_type":"webgazer-init-camera","trial_index":15,"time_elapsed":159802,"internal_node_id":"0.0-10.0-5.0","user_agent":"Mozilla/5.0 (Macintosh; Intel Mac OS X 10_14_4) AppleWebKit/537.36 (KHTML, like Gecko) Chrome/88.0.4324.192 Safari/537.36","screen_width_px":1440,"screen_height_px":900},{"rt":1047.614999988582,"stimulus":"\n      <p>Calibration phase next.</p>\n      <p>Click on the dots.</p>\n    ","response":0,"trial_type":"html-button-response","trial_index":16,"time_elapsed":160852,"internal_node_id":"0.0-10.0-0.1","user_agent":"Mozilla/5.0 (Macintosh; Intel Mac OS X 10_14_4) AppleWebKit/537.36 (KHTML, like Gecko) Chrome/88.0.4324.192 Safari/537.36","screen_width_px":1440,"screen_height_px":900},{"trial_type":"webgazer-calibrate","trial_index":17,"time_elapsed":187467,"internal_node_id":"0.0-10.0-1.1","user_agent":"Mozilla/5.0 (Macintosh; Intel Mac OS X 10_14_4) AppleWebKit/537.36 (KHTML, like Gecko) Chrome/88.0.4324.192 Safari/537.36","screen_width_px":1440,"screen_height_px":900},{"rt":3234.0499999991152,"stimulus":"\n      <p>Validation phase next.</p>\n      <p>Look at the dots.</p>\n    ","response":0,"trial_type":"html-button-response","trial_index":18,"time_elapsed":190702,"internal_node_id":"0.0-10.0-2.1","user_agent":"Mozilla/5.0 (Macintosh; Intel Mac OS X 10_14_4) AppleWebKit/537.36 (KHTML, like Gecko) Chrome/88.0.4324.192 Safari/537.36","screen_width_px":1440,"screen_height_px":900},{"raw_gaze":[[{"dx":14,"dy":-43.5,"t":1097},{"dx":7,"dy":-29.5,"t":1128},{"dx":37,"dy":-23.5,"t":1177},{"dx":53,"dy":-15.5,"t":1216},{"dx":45,"dy":-5.5,"t":1267},{"dx":30,"dy":11.5,"t":1298},{"dx":-9,"dy":43.5,"t":1349},{"dx":-43,"dy":60.5,"t":1380},{"dx":-99,"dy":62.5,"t":1432},{"dx":-104,"dy":55.5,"t":1464},{"dx":-37,"dy":35.5,"t":1515},{"dx":3,"dy":32.5,"t":1545},{"dx":-37,"dy":24.5,"t":1596},{"dx":-34,"dy":18.5,"t":1627},{"dx":-20,"dy":-1.5,"t":1677},{"dx":-13,"dy":-21.5,"t":1708},{"dx":-72,"dy":-57.5,"t":1760},{"dx":-95,"dy":-76.5,"t":1791},{"dx":-67,"dy":-72.5,"t":1840},{"dx":-47,"dy":-75.5,"t":1876},{"dx":-28,"dy":-25.5,"t":1972},{"dx":-44,"dy":-8.5,"t":2005},{"dx":-66,"dy":-6.5,"t":2058},{"dx":-133,"dy":3.5,"t":2091},{"dx":-165,"dy":10.5,"t":2143},{"dx":-154,"dy":-5.5,"t":2176},{"dx":-77,"dy":-24.5,"t":2229},{"dx":-34,"dy":-31.5,"t":2262},{"dx":-55,"dy":-0.5,"t":2311},{"dx":-27,"dy":11.5,"t":2341},{"dx":17,"dy":51.5,"t":2395},{"dx":70,"dy":61.5,"t":2430},{"dx":32,"dy":86.5,"t":2483},{"dx":33,"dy":102.5,"t":2514},{"dx":-24,"dy":61.5,"t":2565},{"dx":-57,"dy":58.5,"t":2596},{"dx":-117,"dy":49.5,"t":2644},{"dx":-135,"dy":57.5,"t":2675},{"dx":-106,"dy":41.5,"t":2727},{"dx":-125,"dy":42.5,"t":2758},{"dx":-73,"dy":23.5,"t":2813},{"dx":-51,"dy":13.5,"t":2848},{"dx":15,"dy":-13.5,"t":2901},{"dx":-11,"dy":-12.5,"t":2936},{"dx":-12,"dy":-24.5,"t":2990},{"dx":-29,"dy":-27.5,"t":3021},{"dx":-140,"dy":-4.5,"t":3075},{"dx":-192,"dy":-0.5,"t":3089}],[{"dx":-256,"dy":101,"t":4080},{"dx":-341,"dy":92,"t":4157},{"dx":-353,"dy":84,"t":4188},{"dx":-222,"dy":72,"t":4241},{"dx":-157,"dy":61,"t":4277},{"dx":-174,"dy":71,"t":4328},{"dx":-173,"dy":97,"t":4359},{"dx":-108,"dy":114,"t":4411},{"dx":-41,"dy":112,"t":4442},{"dx":-75,"dy":105,"t":4499},{"dx":-103,"dy":113,"t":4531},{"dx":-145,"dy":98,"t":4594},{"dx":-171,"dy":101,"t":4640},{"dx":-175,"dy":94,"t":4746},{"dx":-171,"dy":93,"t":4799},{"dx":-180,"dy":107,"t":4868},{"dx":-172,"dy":115,"t":4911},{"dx":-246,"dy":100,"t":4968},{"dx":-327,"dy":95,"t":5006},{"dx":-228,"dy":98,"t":5065},{"dx":-180,"dy":87,"t":5105},{"dx":-133,"dy":77,"t":5157},{"dx":-116,"dy":81,"t":5211},{"dx":-177,"dy":132,"t":5270},{"dx":-151,"dy":151,"t":5302},{"dx":-203,"dy":156,"t":5355},{"dx":-238,"dy":154,"t":5389},{"dx":-182,"dy":149,"t":5442},{"dx":-174,"dy":148,"t":5475},{"dx":-132,"dy":134,"t":5528},{"dx":-95,"dy":128,"t":5563},{"dx":-51,"dy":131,"t":5616},{"dx":-34,"dy":141,"t":5648},{"dx":-135,"dy":103,"t":5702},{"dx":-144,"dy":84,"t":5734},{"dx":-86,"dy":78,"t":5787},{"dx":-77,"dy":76,"t":5818},{"dx":-67,"dy":74,"t":5873},{"dx":-78,"dy":87,"t":5906},{"dx":-65,"dy":112,"t":5957},{"dx":-44,"dy":117,"t":5989},{"dx":-48,"dy":116,"t":6041},{"dx":-67,"dy":112,"t":6076},{"dx":-81,"dy":118,"t":6105}],[{"dx":-263,"dy":42,"t":7116},{"dx":-222,"dy":-1,"t":7170},{"dx":-187,"dy":-13,"t":7202},{"dx":-229,"dy":-18,"t":7255},{"dx":-249,"dy":-5,"t":7288},{"dx":-134,"dy":-6,"t":7337},{"dx":-110,"dy":8,"t":7369},{"dx":-11,"dy":32,"t":7418},{"dx":29,"dy":62,"t":7449},{"dx":-52,"dy":67,"t":7501},{"dx":-67,"dy":64,"t":7535},{"dx":-145,"dy":73,"t":7588},{"dx":-202,"dy":76,"t":7618},{"dx":-199,"dy":58,"t":7673},{"dx":-231,"dy":68,"t":7703},{"dx":-223,"dy":87,"t":7754},{"dx":-220,"dy":99,"t":7784},{"dx":-141,"dy":70,"t":7834},{"dx":-121,"dy":51,"t":7866},{"dx":-3,"dy":20,"t":7919},{"dx":-33,"dy":18,"t":7953},{"dx":-69,"dy":16,"t":8006},{"dx":-76,"dy":9,"t":8041},{"dx":-139,"dy":62,"t":8094},{"dx":-185,"dy":81,"t":8128},{"dx":-219,"dy":144,"t":8196},{"dx":-202,"dy":157,"t":8303},{"dx":-133,"dy":140,"t":8355},{"dx":-128,"dy":125,"t":8386},{"dx":-174,"dy":99,"t":8441},{"dx":-218,"dy":100,"t":8470},{"dx":-168,"dy":78,"t":8524},{"dx":-147,"dy":70,"t":8557},{"dx":-91,"dy":45,"t":8610},{"dx":-52,"dy":33,"t":8640},{"dx":10,"dy":47,"t":8694},{"dx":23,"dy":65,"t":8728},{"dx":-97,"dy":73,"t":8782},{"dx":-130,"dy":71,"t":8811},{"dx":-200,"dy":80,"t":8862},{"dx":-235,"dy":89,"t":8894},{"dx":-244,"dy":87,"t":8945},{"dx":-277,"dy":100,"t":8977},{"dx":-154,"dy":73,"t":9029},{"dx":-89,"dy":58,"t":9060},{"dx":-62,"dy":83,"t":9113},{"dx":-37,"dy":94,"t":9124}],[{"dx":-34,"dy":28,"t":10125},{"dx":-16,"dy":26,"t":10204},{"dx":-7,"dy":13,"t":10239},{"dx":-23,"dy":7,"t":10291},{"dx":-13,"dy":-19,"t":10323},{"dx":-64,"dy":-39,"t":10377},{"dx":-95,"dy":-50,"t":10412},{"dx":-158,"dy":-52,"t":10467},{"dx":-189,"dy":-49,"t":10498},{"dx":-219,"dy":-26,"t":10555},{"dx":-194,"dy":-13,"t":10589},{"dx":-164,"dy":-9,"t":10638},{"dx":-126,"dy":-16,"t":10671},{"dx":-82,"dy":-12,"t":10724},{"dx":-49,"dy":-6,"t":10757},{"dx":-63,"dy":14,"t":10811},{"dx":-45,"dy":23,"t":10843},{"dx":-46,"dy":30,"t":10897},{"dx":-81,"dy":17,"t":10928},{"dx":-111,"dy":18,"t":10984},{"dx":-102,"dy":21,"t":11015},{"dx":-128,"dy":27,"t":11070},{"dx":-116,"dy":28,"t":11101},{"dx":-112,"dy":22,"t":11152},{"dx":-117,"dy":26,"t":11187},{"dx":-106,"dy":13,"t":11239},{"dx":-98,"dy":5,"t":11269},{"dx":-116,"dy":-7,"t":11323},{"dx":-139,"dy":-11,"t":11354},{"dx":-95,"dy":-7,"t":11408},{"dx":-82,"dy":-1,"t":11439},{"dx":-64,"dy":-6,"t":11490},{"dx":-64,"dy":-6,"t":11524},{"dx":-114,"dy":-8,"t":11578},{"dx":-138,"dy":4,"t":11612},{"dx":-184,"dy":21,"t":11664},{"dx":-178,"dy":20,"t":11695},{"dx":-118,"dy":-3,"t":11749},{"dx":-91,"dy":-17,"t":11779},{"dx":-89,"dy":12,"t":11830},{"dx":-72,"dy":23,"t":11863},{"dx":-13,"dy":33,"t":11914},{"dx":10,"dy":55,"t":11947},{"dx":63,"dy":51,"t":12000},{"dx":90,"dy":31,"t":12030},{"dx":93,"dy":19,"t":12082},{"dx":128,"dy":14,"t":12119},{"dx":129,"dy":11,"t":12148}],[{"dx":-146,"dy":48,"t":13148},{"dx":-77,"dy":29,"t":13237},{"dx":-63,"dy":26,"t":13269},{"dx":-54,"dy":23,"t":13324},{"dx":-42,"dy":29,"t":13357},{"dx":-64,"dy":64,"t":13410},{"dx":-83,"dy":79,"t":13443},{"dx":-93,"dy":88,"t":13496},{"dx":-121,"dy":93,"t":13528},{"dx":-162,"dy":105,"t":13581},{"dx":-169,"dy":111,"t":13613},{"dx":-166,"dy":116,"t":13665},{"dx":-158,"dy":115,"t":13695},{"dx":-114,"dy":125,"t":13748},{"dx":-93,"dy":145,"t":13782},{"dx":-101,"dy":181,"t":13834},{"dx":-145,"dy":193,"t":13863},{"dx":-251,"dy":224,"t":13915},{"dx":-308,"dy":242,"t":13947},{"dx":-250,"dy":210,"t":14000},{"dx":-218,"dy":189,"t":14032},{"dx":-196,"dy":167,"t":14084},{"dx":-196,"dy":160,"t":14116},{"dx":-173,"dy":160,"t":14170},{"dx":-155,"dy":165,"t":14203},{"dx":-202,"dy":179,"t":14261},{"dx":-212,"dy":184,"t":14349},{"dx":-154,"dy":183,"t":14401},{"dx":-109,"dy":182,"t":14433},{"dx":-63,"dy":162,"t":14486},{"dx":-57,"dy":146,"t":14517},{"dx":-34,"dy":107,"t":14569},{"dx":-13,"dy":85,"t":14599},{"dx":-29,"dy":74,"t":14650},{"dx":-72,"dy":92,"t":14681},{"dx":-66,"dy":56,"t":14731},{"dx":-60,"dy":44,"t":14763},{"dx":-105,"dy":33,"t":14820},{"dx":-126,"dy":24,"t":14859},{"dx":-79,"dy":25,"t":14911},{"dx":-41,"dy":21,"t":14944},{"dx":-66,"dy":52,"t":14997},{"dx":-103,"dy":76,"t":15030},{"dx":-47,"dy":72,"t":15083},{"dx":-13,"dy":72,"t":15116},{"dx":-55,"dy":128,"t":15146}],[{"dx":220,"dy":75,"t":16135},{"dx":158,"dy":104,"t":16213},{"dx":127,"dy":125,"t":16244},{"dx":74,"dy":158,"t":16295},{"dx":38,"dy":177,"t":16326},{"dx":33,"dy":160,"t":16381},{"dx":58,"dy":134,"t":16415},{"dx":84,"dy":99,"t":16468},{"dx":103,"dy":76,"t":16499},{"dx":143,"dy":44,"t":16551},{"dx":137,"dy":42,"t":16585},{"dx":167,"dy":41,"t":16637},{"dx":186,"dy":45,"t":16668},{"dx":225,"dy":17,"t":16718},{"dx":213,"dy":14,"t":16756},{"dx":179,"dy":18,"t":16809},{"dx":129,"dy":14,"t":16838},{"dx":164,"dy":10,"t":16890},{"dx":153,"dy":17,"t":16921},{"dx":165,"dy":23,"t":16972},{"dx":150,"dy":42,"t":17003},{"dx":99,"dy":73,"t":17055},{"dx":74,"dy":86,"t":17089},{"dx":63,"dy":112,"t":17143},{"dx":71,"dy":124,"t":17175},{"dx":26,"dy":120,"t":17228},{"dx":-7,"dy":110,"t":17261},{"dx":-40,"dy":99,"t":17314},{"dx":-49,"dy":97,"t":17344},{"dx":11,"dy":98,"t":17395},{"dx":60,"dy":100,"t":17427},{"dx":116,"dy":98,"t":17480},{"dx":133,"dy":103,"t":17522},{"dx":153,"dy":98,"t":17574},{"dx":151,"dy":97,"t":17604},{"dx":151,"dy":93,"t":17656},{"dx":152,"dy":86,"t":17687},{"dx":180,"dy":94,"t":17742},{"dx":202,"dy":105,"t":17774},{"dx":224,"dy":117,"t":17827},{"dx":239,"dy":119,"t":17858},{"dx":299,"dy":114,"t":17912},{"dx":326,"dy":117,"t":17942},{"dx":329,"dy":111,"t":17996},{"dx":327,"dy":106,"t":18029},{"dx":296,"dy":103,"t":18084},{"dx":340,"dy":98,"t":18116},{"dx":246,"dy":97,"t":18145}],[{"dx":-270,"dy":247,"t":19153},{"dx":-245,"dy":269,"t":19239},{"dx":-220,"dy":269,"t":19277},{"dx":-218,"dy":282,"t":19328},{"dx":-232,"dy":289,"t":19360},{"dx":-225,"dy":251,"t":19412},{"dx":-214,"dy":234,"t":19444},{"dx":-229,"dy":224,"t":19499},{"dx":-245,"dy":222,"t":19531},{"dx":-246,"dy":196,"t":19586},{"dx":-240,"dy":181,"t":19619},{"dx":-228,"dy":147,"t":19675},{"dx":-253,"dy":137,"t":19708},{"dx":-341,"dy":153,"t":19762},{"dx":-416,"dy":158,"t":19794},{"dx":-515,"dy":93,"t":19845},{"dx":-445,"dy":58,"t":19875},{"dx":-429,"dy":86,"t":19926},{"dx":-401,"dy":135,"t":19957},{"dx":-374,"dy":229,"t":20005},{"dx":-353,"dy":249,"t":20035},{"dx":-145,"dy":156,"t":20086},{"dx":-41,"dy":91,"t":20121},{"dx":63,"dy":-9,"t":20183},{"dx":94,"dy":-40,"t":20269},{"dx":95,"dy":-121,"t":20319},{"dx":76,"dy":-160,"t":20352},{"dx":70,"dy":-195,"t":20401},{"dx":81,"dy":-195,"t":20433},{"dx":56,"dy":-180,"t":20482},{"dx":55,"dy":-176,"t":20513},{"dx":72,"dy":-151,"t":20565},{"dx":74,"dy":-143,"t":20600},{"dx":15,"dy":-98,"t":20652},{"dx":-7,"dy":-87,"t":20683},{"dx":16,"dy":-95,"t":20734},{"dx":22,"dy":-91,"t":20765},{"dx":20,"dy":-72,"t":20815},{"dx":-7,"dy":-52,"t":20846},{"dx":15,"dy":-42,"t":20898},{"dx":0,"dy":-36,"t":20928},{"dx":-12,"dy":-9,"t":20980},{"dx":-22,"dy":-5,"t":21011},{"dx":-64,"dy":5,"t":21061},{"dx":-93,"dy":11,"t":21091},{"dx":-78,"dy":9,"t":21145},{"dx":-99,"dy":17,"t":21158}],[{"dx":216,"dy":-121.5,"t":22176},{"dx":216,"dy":-117.5,"t":22204},{"dx":216,"dy":-104.5,"t":22253},{"dx":211,"dy":-96.5,"t":22283},{"dx":198,"dy":-63.5,"t":22331},{"dx":181,"dy":-30.5,"t":22359},{"dx":255,"dy":-34.5,"t":22408},{"dx":280,"dy":-36.5,"t":22438},{"dx":223,"dy":-41.5,"t":22486},{"dx":185,"dy":-44.5,"t":22516},{"dx":187,"dy":-76.5,"t":22565},{"dx":203,"dy":-87.5,"t":22594},{"dx":186,"dy":-63.5,"t":22645},{"dx":166,"dy":-33.5,"t":22674},{"dx":167,"dy":-59.5,"t":22726},{"dx":184,"dy":-79.5,"t":22763},{"dx":190,"dy":-80.5,"t":22815},{"dx":201,"dy":-62.5,"t":22847},{"dx":147,"dy":-99.5,"t":22898},{"dx":101,"dy":-110.5,"t":22929},{"dx":106,"dy":-95.5,"t":22986},{"dx":111,"dy":-92.5,"t":23015},{"dx":178,"dy":-43.5,"t":23070},{"dx":238,"dy":-5.5,"t":23101},{"dx":154,"dy":20.5,"t":23154},{"dx":150,"dy":56.5,"t":23183},{"dx":81,"dy":33.5,"t":23234},{"dx":67,"dy":24.5,"t":23265},{"dx":114,"dy":-31.5,"t":23319},{"dx":132,"dy":-48.5,"t":23352},{"dx":114,"dy":-45.5,"t":23403},{"dx":150,"dy":-17.5,"t":23434},{"dx":152,"dy":-27.5,"t":23485},{"dx":180,"dy":-24.5,"t":23517},{"dx":69,"dy":-9.5,"t":23571},{"dx":-21,"dy":0.5,"t":23608},{"dx":20,"dy":-38.5,"t":23661},{"dx":68,"dy":-61.5,"t":23695},{"dx":-30,"dy":-48.5,"t":23747},{"dx":-84,"dy":-44.5,"t":23779},{"dx":-19,"dy":-39.5,"t":23833},{"dx":-7,"dy":-26.5,"t":23863},{"dx":12,"dy":-10.5,"t":23914},{"dx":8,"dy":-13.5,"t":23945},{"dx":66,"dy":8.5,"t":23996},{"dx":98,"dy":23.5,"t":24026},{"dx":129,"dy":21.5,"t":24077},{"dx":149,"dy":27.5,"t":24109},{"dx":151,"dy":6.5,"t":24162},{"dx":147,"dy":7.5,"t":24173}],[{"dx":142,"dy":-14.5,"t":25193},{"dx":92,"dy":-2.5,"t":25247},{"dx":90,"dy":10.5,"t":25277},{"dx":72,"dy":35.5,"t":25332},{"dx":94,"dy":58.5,"t":25362},{"dx":64,"dy":87.5,"t":25414},{"dx":66,"dy":82.5,"t":25450},{"dx":39,"dy":93.5,"t":25504},{"dx":15,"dy":106.5,"t":25535},{"dx":-68,"dy":88.5,"t":25588},{"dx":-84,"dy":75.5,"t":25623},{"dx":-59,"dy":86.5,"t":25675},{"dx":-50,"dy":79.5,"t":25706},{"dx":-21,"dy":65.5,"t":25758},{"dx":9,"dy":68.5,"t":25790},{"dx":43,"dy":51.5,"t":25842},{"dx":78,"dy":41.5,"t":25872},{"dx":111,"dy":-16.5,"t":25921},{"dx":108,"dy":-51.5,"t":25954},{"dx":120,"dy":-57.5,"t":26008},{"dx":127,"dy":-52.5,"t":26090},{"dx":116,"dy":2.5,"t":26141},{"dx":107,"dy":21.5,"t":26172},{"dx":94,"dy":105.5,"t":26223},{"dx":61,"dy":159.5,"t":26256},{"dx":-15,"dy":207.5,"t":26308},{"dx":-25,"dy":216.5,"t":26339},{"dx":-66,"dy":144.5,"t":26392},{"dx":-138,"dy":118.5,"t":26422},{"dx":-101,"dy":66.5,"t":26479},{"dx":-44,"dy":51.5,"t":26510},{"dx":-22,"dy":-0.5,"t":26561},{"dx":-1,"dy":-16.5,"t":26595},{"dx":35,"dy":-21.5,"t":26647},{"dx":106,"dy":-24.5,"t":26677},{"dx":92,"dy":-7.5,"t":26726},{"dx":116,"dy":-4.5,"t":26758},{"dx":120,"dy":5.5,"t":26812},{"dx":133,"dy":-0.5,"t":26843},{"dx":99,"dy":18.5,"t":26894},{"dx":83,"dy":34.5,"t":26925},{"dx":38,"dy":73.5,"t":26975},{"dx":-22,"dy":106.5,"t":27008},{"dx":-22,"dy":100.5,"t":27060},{"dx":6,"dy":91.5,"t":27093},{"dx":-3,"dy":67.5,"t":27145},{"dx":3,"dy":64.5,"t":27175},{"dx":21,"dy":50.5,"t":27205}],[{"dx":-278,"dy":36,"t":28203},{"dx":-266,"dy":21,"t":28255},{"dx":-256,"dy":7,"t":28292},{"dx":-234,"dy":-5,"t":28346},{"dx":-224,"dy":-1,"t":28378},{"dx":-195,"dy":-28,"t":28433},{"dx":-195,"dy":-32,"t":28464},{"dx":-201,"dy":-45,"t":28516},{"dx":-200,"dy":-41,"t":28547},{"dx":-184,"dy":-30,"t":28600},{"dx":-197,"dy":-19,"t":28631},{"dx":-224,"dy":-9,"t":28685},{"dx":-289,"dy":10,"t":28715},{"dx":-332,"dy":25,"t":28767},{"dx":-309,"dy":28,"t":28798},{"dx":-237,"dy":11,"t":28848},{"dx":-203,"dy":-3,"t":28877},{"dx":-239,"dy":-10,"t":28929},{"dx":-277,"dy":-11,"t":28962},{"dx":-326,"dy":-17,"t":29016},{"dx":-329,"dy":-22,"t":29046},{"dx":-284,"dy":-6,"t":29097},{"dx":-247,"dy":-8,"t":29128},{"dx":-226,"dy":-5,"t":29179},{"dx":-231,"dy":-5,"t":29210},{"dx":-167,"dy":-18,"t":29263},{"dx":-125,"dy":-28,"t":29293},{"dx":-76,"dy":-38,"t":29344},{"dx":-81,"dy":-44,"t":29376},{"dx":-72,"dy":-43,"t":29430},{"dx":-117,"dy":-34,"t":29459},{"dx":-169,"dy":-33,"t":29514},{"dx":-168,"dy":-40,"t":29546},{"dx":-208,"dy":-15,"t":29606},{"dx":-212,"dy":-6,"t":29640},{"dx":-179,"dy":-29,"t":29696},{"dx":-237,"dy":-30,"t":29726},{"dx":-256,"dy":-31,"t":29777},{"dx":-276,"dy":-24,"t":29810},{"dx":-271,"dy":-26,"t":29863},{"dx":-261,"dy":-27,"t":29895},{"dx":-268,"dy":-28,"t":29950},{"dx":-263,"dy":-38,"t":29983},{"dx":-302,"dy":-33,"t":30036},{"dx":-287,"dy":-9,"t":30069},{"dx":-270,"dy":21,"t":30123},{"dx":-303,"dy":18,"t":30153},{"dx":-294,"dy":18,"t":30207},{"dx":-245,"dy":12,"t":30217}],[{"dx":-51,"dy":-111,"t":31242},{"dx":-72,"dy":-95,"t":31298},{"dx":-63,"dy":-108,"t":31329},{"dx":-40,"dy":-141,"t":31388},{"dx":-33,"dy":-150,"t":31420},{"dx":-45,"dy":-138,"t":31475},{"dx":-31,"dy":-127,"t":31508},{"dx":7,"dy":-100,"t":31563},{"dx":3,"dy":-85,"t":31594},{"dx":-34,"dy":-64,"t":31649},{"dx":-48,"dy":-54,"t":31679},{"dx":11,"dy":-16,"t":31733},{"dx":16,"dy":13,"t":31764},{"dx":-4,"dy":13,"t":31815},{"dx":23,"dy":18,"t":31847},{"dx":72,"dy":-13,"t":31899},{"dx":101,"dy":-27,"t":31934},{"dx":68,"dy":-55,"t":31986},{"dx":127,"dy":-75,"t":32016},{"dx":79,"dy":-56,"t":32070},{"dx":61,"dy":-65,"t":32102},{"dx":53,"dy":-84,"t":32156},{"dx":48,"dy":-79,"t":32192},{"dx":54,"dy":-88,"t":32293},{"dx":54,"dy":-93,"t":32326},{"dx":115,"dy":-74,"t":32377},{"dx":121,"dy":-70,"t":32409},{"dx":121,"dy":-68,"t":32462},{"dx":90,"dy":-59,"t":32492},{"dx":81,"dy":-74,"t":32544},{"dx":59,"dy":-77,"t":32581},{"dx":28,"dy":-67,"t":32637},{"dx":34,"dy":-60,"t":32666},{"dx":159,"dy":-60,"t":32719},{"dx":224,"dy":-51,"t":32751},{"dx":173,"dy":-44,"t":32804},{"dx":159,"dy":-50,"t":32837},{"dx":109,"dy":-22,"t":32889},{"dx":82,"dy":-4,"t":32930},{"dx":74,"dy":18,"t":32979},{"dx":89,"dy":1,"t":33009},{"dx":51,"dy":-17,"t":33059},{"dx":32,"dy":-22,"t":33090},{"dx":-4,"dy":5,"t":33146},{"dx":-35,"dy":4,"t":33182},{"dx":-70,"dy":1,"t":33236},{"dx":-124,"dy":2,"t":33250}],[{"dx":-513,"dy":-68,"t":34377},{"dx":-551,"dy":-69,"t":34377},{"dx":-593,"dy":-62,"t":34377},{"dx":-624,"dy":-54,"t":34416},{"dx":-351,"dy":-60,"t":34471},{"dx":-240,"dy":-62,"t":34501},{"dx":-131,"dy":-79,"t":34552},{"dx":-121,"dy":-92,"t":34583},{"dx":-141,"dy":-83,"t":34638},{"dx":-166,"dy":-66,"t":34669},{"dx":-195,"dy":-50,"t":34721},{"dx":-200,"dy":-48,"t":34752},{"dx":-174,"dy":-38,"t":34804},{"dx":-195,"dy":-11,"t":34834},{"dx":-132,"dy":-25,"t":34888},{"dx":-126,"dy":-24,"t":34921},{"dx":-229,"dy":20,"t":34975},{"dx":-216,"dy":46,"t":35007},{"dx":-152,"dy":11,"t":35060},{"dx":-134,"dy":8,"t":35091},{"dx":-74,"dy":3,"t":35145},{"dx":-37,"dy":1,"t":35217},{"dx":-38,"dy":19,"t":35281},{"dx":-66,"dy":37,"t":35315},{"dx":-55,"dy":41,"t":35366},{"dx":-26,"dy":35,"t":35397},{"dx":6,"dy":30,"t":35450},{"dx":11,"dy":31,"t":35480},{"dx":-25,"dy":44,"t":35535},{"dx":-20,"dy":44,"t":35564},{"dx":-28,"dy":48,"t":35616},{"dx":-38,"dy":52,"t":35647},{"dx":22,"dy":41,"t":35698},{"dx":39,"dy":35,"t":35730},{"dx":30,"dy":41,"t":35781},{"dx":37,"dy":41,"t":35809},{"dx":33,"dy":25,"t":35859},{"dx":8,"dy":13,"t":35891},{"dx":72,"dy":13,"t":35943},{"dx":123,"dy":17,"t":35977},{"dx":11,"dy":14,"t":36030},{"dx":-14,"dy":32,"t":36063},{"dx":-107,"dy":51,"t":36117},{"dx":-191,"dy":55,"t":36147},{"dx":-242,"dy":69,"t":36195},{"dx":-222,"dy":78,"t":36230},{"dx":-180,"dy":82,"t":36261}],[{"dx":125,"dy":87.5,"t":37276},{"dx":95,"dy":100.5,"t":37328},{"dx":79,"dy":88.5,"t":37358},{"dx":34,"dy":80.5,"t":37408},{"dx":8,"dy":83.5,"t":37441},{"dx":-25,"dy":86.5,"t":37493},{"dx":-33,"dy":86.5,"t":37526},{"dx":-53,"dy":88.5,"t":37578},{"dx":-70,"dy":94.5,"t":37609},{"dx":-82,"dy":83.5,"t":37662},{"dx":-79,"dy":68.5,"t":37693},{"dx":-85,"dy":61.5,"t":37746},{"dx":-93,"dy":66.5,"t":37779},{"dx":-67,"dy":82.5,"t":37831},{"dx":-40,"dy":93.5,"t":37861},{"dx":-16,"dy":69.5,"t":37913},{"dx":26,"dy":78.5,"t":37947},{"dx":65,"dy":121.5,"t":37998},{"dx":74,"dy":131.5,"t":38028},{"dx":92,"dy":116.5,"t":38079},{"dx":90,"dy":98.5,"t":38113},{"dx":53,"dy":86.5,"t":38164},{"dx":46,"dy":78.5,"t":38198},{"dx":79,"dy":79.5,"t":38299},{"dx":63,"dy":65.5,"t":38331},{"dx":41,"dy":114.5,"t":38385},{"dx":43,"dy":142.5,"t":38417},{"dx":84,"dy":117.5,"t":38469},{"dx":105,"dy":96.5,"t":38498},{"dx":110,"dy":92.5,"t":38550},{"dx":112,"dy":102.5,"t":38580},{"dx":131,"dy":106.5,"t":38635},{"dx":146,"dy":102.5,"t":38664},{"dx":97,"dy":90.5,"t":38715},{"dx":98,"dy":97.5,"t":38745},{"dx":39,"dy":88.5,"t":38794},{"dx":2,"dy":86.5,"t":38822},{"dx":-12,"dy":74.5,"t":38872},{"dx":-29,"dy":76.5,"t":38901},{"dx":-6,"dy":126.5,"t":38951},{"dx":0,"dy":149.5,"t":38981},{"dx":14,"dy":117.5,"t":39035},{"dx":23,"dy":92.5,"t":39066},{"dx":48,"dy":91.5,"t":39121},{"dx":53,"dy":61.5,"t":39151},{"dx":33,"dy":73.5,"t":39200}]],"percent_in_roi":[93.75,31.818181818181817,42.5531914893617,85.41666666666666,47.82608695652174,33.33333333333333,36.17021276595745,44,89.58333333333334,10.204081632653061,89.36170212765957,55.319148936170215,89.13043478260869],"average_offset":[{"x":-45.333333333333336,"y":8.583333333333334,"r":99.23408828945949},{"x":-149.45454545454547,"y":106.11363636363636,"r":93.39003413013322},{"x":-138.4255319148936,"y":62.361702127659576,"r":83.48240476794943},{"x":-75.04166666666667,"y":5.3125,"r":70.2695860564956},{"x":-115.30434782608695,"y":110.52173913043478,"r":117.41265965682722},{"x":147.45833333333334,"y":87.70833333333333,"r":116.23699122799091},{"x":-129.4255319148936,"y":51.93617021276596,"r":208.23169900570196},{"x":131.92,"y":-38.76,"r":106.00966160802793},{"x":36.645833333333336,"y":51.416666666666664,"r":117.74023346441702},{"x":-230.40816326530611,"y":-13.551020408163266,"r":46.6616218688896},{"x":40.93617021276596,"y":-54.638297872340424,"r":74.81997406904233},{"x":-130.95744680851064,"y":3.9574468085106385,"r":109.45184214625073},{"x":30.82608695652174,"y":93.04347826086956,"r":87.08199304211998}],"samples_per_sec":"23.22","clicks":25,"pattern":"spread","trial_type":"webgazer-validate","trial_index":19,"time_elapsed":230920,"internal_node_id":"0.0-10.0-3.1","validation_points":[[37.5,37.5],[75,25],[85,15],[15,85],[15,15],[50,50],[75,75],[37.5,62.5],[62.5,62.5],[85,85],[25,75],[25,25],[62.5,37.5]],"user_agent":"Mozilla/5.0 (Macintosh; Intel Mac OS X 10_14_4) AppleWebKit/537.36 (KHTML, like Gecko) Chrome/88.0.4324.192 Safari/537.36","screen_width_px":1440,"screen_height_px":900},{"rt":1978.304999996908,"stimulus":"\n      <p>Round complete.</p>\n      <p>You can move a little bit, but please try to return you head to the same general location before continuing.</p>\n    ","response":0,"trial_type":"html-button-response","trial_index":20,"time_elapsed":232901,"internal_node_id":"0.0-10.0-4.1","user_agent":"Mozilla/5.0 (Macintosh; Intel Mac OS X 10_14_4) AppleWebKit/537.36 (KHTML, like Gecko) Chrome/88.0.4324.192 Safari/537.36","screen_width_px":1440,"screen_height_px":900},{"trial_type":"webgazer-init-camera","trial_index":21,"time_elapsed":257498,"internal_node_id":"0.0-10.0-5.1","user_agent":"Mozilla/5.0 (Macintosh; Intel Mac OS X 10_14_4) AppleWebKit/537.36 (KHTML, like Gecko) Chrome/88.0.4324.192 Safari/537.36","screen_width_px":1440,"screen_height_px":900},{"rt":897.964999996475,"stimulus":"\n      <p>Calibration phase next.</p>\n      <p>Click on the dots.</p>\n    ","response":0,"trial_type":"html-button-response","trial_index":22,"time_elapsed":258398,"internal_node_id":"0.0-10.0-0.2","user_agent":"Mozilla/5.0 (Macintosh; Intel Mac OS X 10_14_4) AppleWebKit/537.36 (KHTML, like Gecko) Chrome/88.0.4324.192 Safari/537.36","screen_width_px":1440,"screen_height_px":900},{"trial_type":"webgazer-calibrate","trial_index":23,"time_elapsed":275948,"internal_node_id":"0.0-10.0-1.2","user_agent":"Mozilla/5.0 (Macintosh; Intel Mac OS X 10_14_4) AppleWebKit/537.36 (KHTML, like Gecko) Chrome/88.0.4324.192 Safari/537.36","screen_width_px":1440,"screen_height_px":900},{"rt":1266.8100000009872,"stimulus":"\n      <p>Validation phase next.</p>\n      <p>Look at the dots.</p>\n    ","response":0,"trial_type":"html-button-response","trial_index":24,"time_elapsed":277216,"internal_node_id":"0.0-10.0-2.2","user_agent":"Mozilla/5.0 (Macintosh; Intel Mac OS X 10_14_4) AppleWebKit/537.36 (KHTML, like Gecko) Chrome/88.0.4324.192 Safari/537.36","screen_width_px":1440,"screen_height_px":900},{"raw_gaze":[[{"dx":459,"dy":-61,"t":1088},{"dx":538,"dy":-100,"t":1121},{"dx":588,"dy":-135,"t":1174},{"dx":658,"dy":-136,"t":1207},{"dx":675,"dy":-126,"t":1260},{"dx":730,"dy":-149,"t":1291},{"dx":682,"dy":-154,"t":1343},{"dx":662,"dy":-162,"t":1373},{"dx":646,"dy":-182,"t":1426},{"dx":676,"dy":-206,"t":1457},{"dx":587,"dy":-181,"t":1508},{"dx":554,"dy":-173,"t":1540},{"dx":567,"dy":-173,"t":1597},{"dx":571,"dy":-181,"t":1627},{"dx":626,"dy":-187,"t":1683},{"dx":662,"dy":-184,"t":1716},{"dx":737,"dy":-151,"t":1769},{"dx":799,"dy":-169,"t":1800},{"dx":844,"dy":-132,"t":1851},{"dx":858,"dy":-98,"t":1882},{"dx":869,"dy":-59,"t":1933},{"dx":871,"dy":-27,"t":1963},{"dx":817,"dy":-74,"t":2014},{"dx":778,"dy":-95,"t":2044},{"dx":794,"dy":-122,"t":2096},{"dx":790,"dy":-133,"t":2126},{"dx":870,"dy":-140,"t":2180},{"dx":827,"dy":-145,"t":2210},{"dx":715,"dy":-166,"t":2263},{"dx":650,"dy":-179,"t":2294},{"dx":523,"dy":-174,"t":2347},{"dx":456,"dy":-155,"t":2376},{"dx":359,"dy":-148,"t":2426},{"dx":353,"dy":-140,"t":2457},{"dx":388,"dy":-120,"t":2509},{"dx":458,"dy":-113,"t":2540},{"dx":495,"dy":-104,"t":2594},{"dx":526,"dy":-116,"t":2625},{"dx":553,"dy":-90,"t":2679},{"dx":524,"dy":-60,"t":2708},{"dx":478,"dy":-27,"t":2764},{"dx":417,"dy":-19,"t":2794},{"dx":392,"dy":-29,"t":2846},{"dx":345,"dy":-43,"t":2876},{"dx":412,"dy":-131,"t":2931},{"dx":398,"dy":-116,"t":2961},{"dx":460,"dy":-153,"t":3014},{"dx":466,"dy":-164,"t":3049},{"dx":490,"dy":-165,"t":3078}],[{"dx":201,"dy":-248,"t":4104},{"dx":221,"dy":-266,"t":4136},{"dx":119,"dy":-267,"t":4190},{"dx":38,"dy":-237,"t":4218},{"dx":-44,"dy":-215,"t":4267},{"dx":-82,"dy":-200,"t":4296},{"dx":-84,"dy":-186,"t":4347},{"dx":-104,"dy":-147,"t":4378},{"dx":-92,"dy":-134,"t":4430},{"dx":-62,"dy":-145,"t":4461},{"dx":-102,"dy":-99,"t":4515},{"dx":-128,"dy":-112,"t":4546},{"dx":-78,"dy":-173,"t":4599},{"dx":-29,"dy":-206,"t":4629},{"dx":55,"dy":-182,"t":4681},{"dx":94,"dy":-190,"t":4712},{"dx":155,"dy":-239,"t":4763},{"dx":203,"dy":-288,"t":4795},{"dx":161,"dy":-236,"t":4849},{"dx":125,"dy":-201,"t":4879},{"dx":126,"dy":-194,"t":4934},{"dx":118,"dy":-169,"t":4965},{"dx":129,"dy":-158,"t":5017},{"dx":147,"dy":-163,"t":5047},{"dx":114,"dy":-137,"t":5099},{"dx":81,"dy":-116,"t":5136},{"dx":81,"dy":-113,"t":5231},{"dx":83,"dy":-92,"t":5263},{"dx":182,"dy":-107,"t":5317},{"dx":207,"dy":-96,"t":5351},{"dx":172,"dy":-77,"t":5402},{"dx":172,"dy":-107,"t":5433},{"dx":172,"dy":-119,"t":5481},{"dx":144,"dy":-123,"t":5515},{"dx":164,"dy":-146,"t":5566},{"dx":163,"dy":-144,"t":5598},{"dx":160,"dy":-156,"t":5648},{"dx":145,"dy":-175,"t":5680},{"dx":165,"dy":-190,"t":5732},{"dx":182,"dy":-203,"t":5761},{"dx":186,"dy":-205,"t":5814},{"dx":181,"dy":-199,"t":5846},{"dx":82,"dy":-163,"t":5896},{"dx":33,"dy":-120,"t":5926},{"dx":118,"dy":-148,"t":5976},{"dx":139,"dy":-152,"t":6009},{"dx":154,"dy":-181,"t":6060},{"dx":146,"dy":-199,"t":6092},{"dx":160,"dy":-211,"t":6123}],[{"dx":277,"dy":-176,"t":7150},{"dx":170,"dy":-72,"t":7202},{"dx":90,"dy":-9,"t":7235},{"dx":51,"dy":-61,"t":7289},{"dx":93,"dy":-83,"t":7319},{"dx":117,"dy":-104,"t":7374},{"dx":191,"dy":-138,"t":7407},{"dx":271,"dy":-150,"t":7459},{"dx":286,"dy":-146,"t":7489},{"dx":306,"dy":-150,"t":7544},{"dx":327,"dy":-147,"t":7576},{"dx":272,"dy":-124,"t":7628},{"dx":221,"dy":-108,"t":7658},{"dx":171,"dy":-106,"t":7711},{"dx":157,"dy":-103,"t":7742},{"dx":195,"dy":-121,"t":7793},{"dx":190,"dy":-129,"t":7823},{"dx":131,"dy":-142,"t":7873},{"dx":137,"dy":-155,"t":7906},{"dx":153,"dy":-166,"t":7958},{"dx":153,"dy":-163,"t":7991},{"dx":140,"dy":-175,"t":8043},{"dx":108,"dy":-176,"t":8074},{"dx":116,"dy":-184,"t":8129},{"dx":106,"dy":-186,"t":8161},{"dx":155,"dy":-147,"t":8217},{"dx":152,"dy":-128,"t":8248},{"dx":208,"dy":-141,"t":8300},{"dx":219,"dy":-142,"t":8330},{"dx":234,"dy":-158,"t":8383},{"dx":188,"dy":-166,"t":8415},{"dx":228,"dy":-198,"t":8466},{"dx":251,"dy":-223,"t":8497},{"dx":244,"dy":-204,"t":8546},{"dx":240,"dy":-197,"t":8579},{"dx":201,"dy":-166,"t":8631},{"dx":182,"dy":-148,"t":8661},{"dx":212,"dy":-172,"t":8714},{"dx":186,"dy":-164,"t":8744},{"dx":150,"dy":-139,"t":8797},{"dx":138,"dy":-127,"t":8827},{"dx":48,"dy":-112,"t":8882},{"dx":-4,"dy":-98,"t":8913},{"dx":-5,"dy":-82,"t":8964},{"dx":-26,"dy":-72,"t":8994},{"dx":75,"dy":-82,"t":9045},{"dx":115,"dy":-82,"t":9076},{"dx":161,"dy":-82,"t":9130},{"dx":171,"dy":-85,"t":9141}],[{"dx":365,"dy":-157.5,"t":10144},{"dx":349,"dy":-151.5,"t":10221},{"dx":314,"dy":-147.5,"t":10252},{"dx":275,"dy":-111.5,"t":10304},{"dx":278,"dy":-101.5,"t":10338},{"dx":291,"dy":-102.5,"t":10391},{"dx":292,"dy":-117.5,"t":10422},{"dx":286,"dy":-78.5,"t":10476},{"dx":314,"dy":-78.5,"t":10506},{"dx":353,"dy":-70.5,"t":10559},{"dx":350,"dy":-70.5,"t":10592},{"dx":345,"dy":-96.5,"t":10645},{"dx":363,"dy":-119.5,"t":10674},{"dx":384,"dy":-156.5,"t":10726},{"dx":397,"dy":-167.5,"t":10757},{"dx":406,"dy":-172.5,"t":10808},{"dx":403,"dy":-181.5,"t":10839},{"dx":404,"dy":-176.5,"t":10889},{"dx":407,"dy":-164.5,"t":10921},{"dx":439,"dy":-167.5,"t":10978},{"dx":419,"dy":-177.5,"t":11058},{"dx":394,"dy":-201.5,"t":11109},{"dx":376,"dy":-212.5,"t":11141},{"dx":400,"dy":-185.5,"t":11193},{"dx":402,"dy":-189.5,"t":11226},{"dx":379,"dy":-175.5,"t":11278},{"dx":362,"dy":-169.5,"t":11309},{"dx":351,"dy":-139.5,"t":11360},{"dx":355,"dy":-112.5,"t":11397},{"dx":294,"dy":-89.5,"t":11449},{"dx":282,"dy":-66.5,"t":11478},{"dx":292,"dy":-86.5,"t":11527},{"dx":291,"dy":-98.5,"t":11561},{"dx":259,"dy":-74.5,"t":11613},{"dx":281,"dy":-80.5,"t":11645},{"dx":365,"dy":-87.5,"t":11699},{"dx":405,"dy":-92.5,"t":11729},{"dx":438,"dy":-85.5,"t":11782},{"dx":437,"dy":-76.5,"t":11812},{"dx":372,"dy":-60.5,"t":11865},{"dx":378,"dy":-79.5,"t":11895},{"dx":367,"dy":-73.5,"t":11947},{"dx":369,"dy":-75.5,"t":11977},{"dx":400,"dy":-137.5,"t":12029},{"dx":387,"dy":-184.5,"t":12061},{"dx":385,"dy":-190.5,"t":12112},{"dx":399,"dy":-197.5,"t":12145},{"dx":397,"dy":-194.5,"t":12176}],[{"dx":404,"dy":-132,"t":13182},{"dx":394,"dy":-114,"t":13260},{"dx":385,"dy":-88,"t":13292},{"dx":360,"dy":-46,"t":13345},{"dx":357,"dy":-38,"t":13379},{"dx":348,"dy":-16,"t":13437},{"dx":344,"dy":-6,"t":13468},{"dx":340,"dy":3,"t":13521},{"dx":330,"dy":-11,"t":13554},{"dx":360,"dy":-70,"t":13606},{"dx":378,"dy":-94,"t":13636},{"dx":407,"dy":-124,"t":13686},{"dx":430,"dy":-132,"t":13717},{"dx":432,"dy":-106,"t":13770},{"dx":436,"dy":-85,"t":13803},{"dx":494,"dy":-103,"t":13855},{"dx":534,"dy":-124,"t":13885},{"dx":537,"dy":-124,"t":13935},{"dx":528,"dy":-121,"t":13964},{"dx":518,"dy":-112,"t":14013},{"dx":519,"dy":-99,"t":14044},{"dx":511,"dy":-96,"t":14096},{"dx":493,"dy":-88,"t":14126},{"dx":461,"dy":-86,"t":14175},{"dx":447,"dy":-91,"t":14206},{"dx":452,"dy":-109,"t":14259},{"dx":448,"dy":-105,"t":14289},{"dx":427,"dy":-117,"t":14342},{"dx":455,"dy":-136,"t":14373},{"dx":481,"dy":-150,"t":14424},{"dx":481,"dy":-147,"t":14460},{"dx":493,"dy":-132,"t":14513},{"dx":504,"dy":-122,"t":14544},{"dx":517,"dy":-92,"t":14595},{"dx":496,"dy":-79,"t":14627},{"dx":514,"dy":-64,"t":14681},{"dx":480,"dy":-68,"t":14713},{"dx":484,"dy":-79,"t":14765},{"dx":476,"dy":-92,"t":14797},{"dx":471,"dy":-89,"t":14850},{"dx":466,"dy":-79,"t":14880},{"dx":460,"dy":-61,"t":14930},{"dx":442,"dy":-39,"t":14961},{"dx":446,"dy":-39,"t":15012},{"dx":447,"dy":-36,"t":15043},{"dx":413,"dy":-39,"t":15094},{"dx":387,"dy":-30,"t":15127},{"dx":406,"dy":-48,"t":15184},{"dx":409,"dy":-59,"t":15193}],[{"dx":459,"dy":-210,"t":16191},{"dx":470,"dy":-187,"t":16266},{"dx":479,"dy":-161,"t":16296},{"dx":477,"dy":-142,"t":16347},{"dx":467,"dy":-144,"t":16378},{"dx":497,"dy":-170,"t":16430},{"dx":496,"dy":-173,"t":16461},{"dx":482,"dy":-166,"t":16510},{"dx":471,"dy":-156,"t":16540},{"dx":480,"dy":-146,"t":16598},{"dx":491,"dy":-150,"t":16634},{"dx":471,"dy":-128,"t":16695},{"dx":476,"dy":-113,"t":16727},{"dx":492,"dy":-105,"t":16786},{"dx":501,"dy":-110,"t":16825},{"dx":505,"dy":-119,"t":16882},{"dx":505,"dy":-122,"t":16916},{"dx":496,"dy":-114,"t":16971},{"dx":482,"dy":-102,"t":17007},{"dx":447,"dy":-74,"t":17060},{"dx":453,"dy":-67,"t":17090},{"dx":493,"dy":-77,"t":17141},{"dx":510,"dy":-87,"t":17176},{"dx":481,"dy":-86,"t":17276},{"dx":462,"dy":-87,"t":17308},{"dx":459,"dy":-95,"t":17359},{"dx":458,"dy":-86,"t":17389},{"dx":442,"dy":-66,"t":17441},{"dx":441,"dy":-66,"t":17471},{"dx":486,"dy":-101,"t":17522},{"dx":486,"dy":-104,"t":17555},{"dx":488,"dy":-106,"t":17610},{"dx":485,"dy":-120,"t":17645},{"dx":446,"dy":-82,"t":17697},{"dx":461,"dy":-60,"t":17726},{"dx":427,"dy":-41,"t":17778},{"dx":403,"dy":-41,"t":17809},{"dx":405,"dy":-51,"t":17858},{"dx":424,"dy":-59,"t":17888},{"dx":478,"dy":-77,"t":17939},{"dx":508,"dy":-86,"t":17967},{"dx":545,"dy":-93,"t":18018},{"dx":554,"dy":-92,"t":18053},{"dx":547,"dy":-79,"t":18104},{"dx":536,"dy":-69,"t":18135},{"dx":528,"dy":-92,"t":18190},{"dx":546,"dy":-118,"t":18203}],[{"dx":565,"dy":27.5,"t":19217},{"dx":601,"dy":19.5,"t":19246},{"dx":565,"dy":75.5,"t":19298},{"dx":518,"dy":119.5,"t":19329},{"dx":466,"dy":1.5,"t":19381},{"dx":438,"dy":-94.5,"t":19412},{"dx":507,"dy":-124.5,"t":19466},{"dx":549,"dy":-111.5,"t":19497},{"dx":608,"dy":-55.5,"t":19551},{"dx":612,"dy":-39.5,"t":19580},{"dx":611,"dy":-87.5,"t":19631},{"dx":596,"dy":-90.5,"t":19664},{"dx":603,"dy":-165.5,"t":19718},{"dx":610,"dy":-200.5,"t":19747},{"dx":607,"dy":-246.5,"t":19802},{"dx":596,"dy":-261.5,"t":19831},{"dx":627,"dy":-289.5,"t":19884},{"dx":662,"dy":-302.5,"t":19914},{"dx":683,"dy":-305.5,"t":19967},{"dx":674,"dy":-297.5,"t":19997},{"dx":650,"dy":-281.5,"t":20052},{"dx":660,"dy":-283.5,"t":20085},{"dx":613,"dy":-265.5,"t":20140},{"dx":574,"dy":-249.5,"t":20175},{"dx":539,"dy":-213.5,"t":20227},{"dx":549,"dy":-190.5,"t":20256},{"dx":552,"dy":-205.5,"t":20308},{"dx":561,"dy":-231.5,"t":20340},{"dx":541,"dy":-250.5,"t":20395},{"dx":513,"dy":-249.5,"t":20425},{"dx":537,"dy":-273.5,"t":20477},{"dx":545,"dy":-290.5,"t":20507},{"dx":554,"dy":-265.5,"t":20559},{"dx":582,"dy":-265.5,"t":20592},{"dx":618,"dy":-218.5,"t":20646},{"dx":631,"dy":-191.5,"t":20678},{"dx":664,"dy":-177.5,"t":20730},{"dx":693,"dy":-178.5,"t":20760},{"dx":667,"dy":-167.5,"t":20813},{"dx":654,"dy":-186.5,"t":20844},{"dx":654,"dy":-191.5,"t":20897},{"dx":667,"dy":-211.5,"t":20928},{"dx":649,"dy":-218.5,"t":20981},{"dx":622,"dy":-211.5,"t":21011},{"dx":582,"dy":-196.5,"t":21062},{"dx":605,"dy":-204.5,"t":21093},{"dx":637,"dy":-237.5,"t":21145},{"dx":645,"dy":-248.5,"t":21181},{"dx":665,"dy":-243.5,"t":21211}],[{"dx":197,"dy":-62,"t":22212},{"dx":272,"dy":-74,"t":22288},{"dx":296,"dy":-79,"t":22331},{"dx":394,"dy":-95,"t":22401},{"dx":389,"dy":-63,"t":22446},{"dx":429,"dy":-74,"t":22502},{"dx":457,"dy":-80,"t":22536},{"dx":403,"dy":-56,"t":22590},{"dx":411,"dy":-55,"t":22635},{"dx":464,"dy":-85,"t":22688},{"dx":464,"dy":-103,"t":22719},{"dx":494,"dy":-155,"t":22770},{"dx":524,"dy":-179,"t":22802},{"dx":519,"dy":-189,"t":22853},{"dx":513,"dy":-188,"t":22885},{"dx":462,"dy":-177,"t":22939},{"dx":423,"dy":-169,"t":22969},{"dx":403,"dy":-154,"t":23019},{"dx":415,"dy":-147,"t":23049},{"dx":416,"dy":-141,"t":23098},{"dx":417,"dy":-138,"t":23129},{"dx":427,"dy":-131,"t":23187},{"dx":435,"dy":-118,"t":23269},{"dx":426,"dy":-103,"t":23321},{"dx":413,"dy":-102,"t":23352},{"dx":468,"dy":-145,"t":23405},{"dx":490,"dy":-173,"t":23439},{"dx":474,"dy":-157,"t":23493},{"dx":451,"dy":-141,"t":23522},{"dx":422,"dy":-111,"t":23575},{"dx":413,"dy":-97,"t":23606},{"dx":465,"dy":-101,"t":23664},{"dx":495,"dy":-103,"t":23701},{"dx":531,"dy":-113,"t":23752},{"dx":546,"dy":-135,"t":23782},{"dx":541,"dy":-167,"t":23833},{"dx":530,"dy":-174,"t":23865},{"dx":490,"dy":-164,"t":23917},{"dx":489,"dy":-186,"t":23947},{"dx":475,"dy":-212,"t":23997},{"dx":502,"dy":-233,"t":24028},{"dx":527,"dy":-237,"t":24079},{"dx":523,"dy":-226,"t":24110},{"dx":522,"dy":-208,"t":24165},{"dx":523,"dy":-200,"t":24201},{"dx":495,"dy":-121,"t":24231}],[{"dx":705,"dy":-32,"t":25258},{"dx":765,"dy":-40,"t":25289},{"dx":831,"dy":-72,"t":25340},{"dx":842,"dy":-92,"t":25370},{"dx":768,"dy":-95,"t":25419},{"dx":777,"dy":-105,"t":25451},{"dx":672,"dy":-123,"t":25503},{"dx":627,"dy":-127,"t":25533},{"dx":612,"dy":-131,"t":25627},{"dx":627,"dy":-145,"t":25662},{"dx":676,"dy":-168,"t":25714},{"dx":706,"dy":-178,"t":25745},{"dx":639,"dy":-154,"t":25798},{"dx":592,"dy":-149,"t":25831},{"dx":553,"dy":-162,"t":25883},{"dx":532,"dy":-159,"t":25914},{"dx":544,"dy":-159,"t":25969},{"dx":557,"dy":-165,"t":26000},{"dx":551,"dy":-134,"t":26055},{"dx":553,"dy":-120,"t":26086},{"dx":592,"dy":-150,"t":26139},{"dx":607,"dy":-162,"t":26170},{"dx":617,"dy":-170,"t":26224},{"dx":613,"dy":-167,"t":26253},{"dx":581,"dy":-176,"t":26306},{"dx":556,"dy":-186,"t":26336},{"dx":574,"dy":-176,"t":26390},{"dx":592,"dy":-158,"t":26419},{"dx":615,"dy":-139,"t":26473},{"dx":639,"dy":-143,"t":26505},{"dx":644,"dy":-139,"t":26557},{"dx":650,"dy":-168,"t":26587},{"dx":603,"dy":-166,"t":26638},{"dx":580,"dy":-170,"t":26669},{"dx":547,"dy":-171,"t":26720},{"dx":535,"dy":-169,"t":26750},{"dx":538,"dy":-175,"t":26802},{"dx":570,"dy":-176,"t":26835},{"dx":557,"dy":-170,"t":26889},{"dx":551,"dy":-170,"t":26922},{"dx":550,"dy":-112,"t":26974},{"dx":564,"dy":-108,"t":27004},{"dx":533,"dy":-115,"t":27055},{"dx":536,"dy":-121,"t":27086},{"dx":485,"dy":-109,"t":27139},{"dx":472,"dy":-114,"t":27171},{"dx":486,"dy":-110,"t":27224},{"dx":506,"dy":-102,"t":27236}],[{"dx":620,"dy":-449,"t":28264},{"dx":562,"dy":-409,"t":28297},{"dx":548,"dy":-362,"t":28349},{"dx":555,"dy":-346,"t":28379},{"dx":497,"dy":-287,"t":28430},{"dx":465,"dy":-267,"t":28461},{"dx":417,"dy":-271,"t":28518},{"dx":410,"dy":-282,"t":28548},{"dx":482,"dy":-311,"t":28601},{"dx":486,"dy":-281,"t":28630},{"dx":521,"dy":-261,"t":28682},{"dx":511,"dy":-228,"t":28715},{"dx":548,"dy":-254,"t":28767},{"dx":519,"dy":-239,"t":28799},{"dx":524,"dy":-244,"t":28849},{"dx":476,"dy":-218,"t":28881},{"dx":444,"dy":-207,"t":28932},{"dx":460,"dy":-222,"t":28961},{"dx":461,"dy":-246,"t":29010},{"dx":433,"dy":-249,"t":29039},{"dx":443,"dy":-230,"t":29091},{"dx":407,"dy":-186,"t":29123},{"dx":393,"dy":-170,"t":29175},{"dx":356,"dy":-145,"t":29212},{"dx":346,"dy":-138,"t":29315},{"dx":373,"dy":-144,"t":29346},{"dx":385,"dy":-155,"t":29400},{"dx":381,"dy":-154,"t":29429},{"dx":333,"dy":-152,"t":29480},{"dx":306,"dy":-146,"t":29512},{"dx":315,"dy":-135,"t":29565},{"dx":329,"dy":-137,"t":29597},{"dx":297,"dy":-116,"t":29651},{"dx":290,"dy":-103,"t":29681},{"dx":277,"dy":-82,"t":29733},{"dx":282,"dy":-81,"t":29764},{"dx":311,"dy":-93,"t":29817},{"dx":333,"dy":-103,"t":29847},{"dx":332,"dy":-140,"t":29898},{"dx":324,"dy":-153,"t":29928},{"dx":276,"dy":-140,"t":29983},{"dx":255,"dy":-124,"t":30015},{"dx":241,"dy":-118,"t":30068},{"dx":265,"dy":-117,"t":30099},{"dx":300,"dy":-113,"t":30152},{"dx":322,"dy":-118,"t":30182},{"dx":360,"dy":-155,"t":30237},{"dx":372,"dy":-174,"t":30248}],[{"dx":496,"dy":-98.5,"t":31272},{"dx":502,"dy":-83.5,"t":31305},{"dx":531,"dy":-117.5,"t":31356},{"dx":520,"dy":-140.5,"t":31385},{"dx":441,"dy":-146.5,"t":31434},{"dx":415,"dy":-161.5,"t":31466},{"dx":414,"dy":-155.5,"t":31516},{"dx":435,"dy":-129.5,"t":31548},{"dx":430,"dy":-107.5,"t":31602},{"dx":447,"dy":-109.5,"t":31632},{"dx":441,"dy":-132.5,"t":31683},{"dx":464,"dy":-153.5,"t":31714},{"dx":475,"dy":-180.5,"t":31766},{"dx":478,"dy":-192.5,"t":31796},{"dx":448,"dy":-192.5,"t":31845},{"dx":405,"dy":-189.5,"t":31877},{"dx":393,"dy":-186.5,"t":31929},{"dx":423,"dy":-202.5,"t":31960},{"dx":540,"dy":-219.5,"t":32013},{"dx":548,"dy":-226.5,"t":32043},{"dx":588,"dy":-213.5,"t":32092},{"dx":606,"dy":-203.5,"t":32124},{"dx":612,"dy":-191.5,"t":32179},{"dx":575,"dy":-187.5,"t":32210},{"dx":518,"dy":-172.5,"t":32262},{"dx":497,"dy":-161.5,"t":32293},{"dx":500,"dy":-205.5,"t":32345},{"dx":481,"dy":-221.5,"t":32375},{"dx":496,"dy":-217.5,"t":32425},{"dx":520,"dy":-215.5,"t":32456},{"dx":509,"dy":-220.5,"t":32507},{"dx":539,"dy":-223.5,"t":32537},{"dx":515,"dy":-214.5,"t":32589},{"dx":561,"dy":-232.5,"t":32620},{"dx":595,"dy":-226.5,"t":32678},{"dx":577,"dy":-213.5,"t":32707},{"dx":469,"dy":-173.5,"t":32761},{"dx":428,"dy":-162.5,"t":32792},{"dx":389,"dy":-151.5,"t":32845},{"dx":387,"dy":-150.5,"t":32876},{"dx":390,"dy":-163.5,"t":32928},{"dx":372,"dy":-172.5,"t":32960},{"dx":373,"dy":-168.5,"t":33010},{"dx":351,"dy":-148.5,"t":33043},{"dx":402,"dy":-150.5,"t":33098},{"dx":467,"dy":-141.5,"t":33131},{"dx":552,"dy":-168.5,"t":33183},{"dx":586,"dy":-181.5,"t":33214},{"dx":624,"dy":-200.5,"t":33270},{"dx":630,"dy":-206.5,"t":33280}],[{"dx":387,"dy":-224.5,"t":34283},{"dx":371,"dy":-238.5,"t":34360},{"dx":366,"dy":-247.5,"t":34390},{"dx":371,"dy":-238.5,"t":34445},{"dx":390,"dy":-231.5,"t":34475},{"dx":419,"dy":-213.5,"t":34529},{"dx":408,"dy":-205.5,"t":34564},{"dx":412,"dy":-198.5,"t":34616},{"dx":404,"dy":-195.5,"t":34647},{"dx":374,"dy":-196.5,"t":34700},{"dx":356,"dy":-189.5,"t":34729},{"dx":358,"dy":-207.5,"t":34784},{"dx":355,"dy":-211.5,"t":34812},{"dx":337,"dy":-206.5,"t":34867},{"dx":334,"dy":-202.5,"t":34898},{"dx":354,"dy":-191.5,"t":34950},{"dx":352,"dy":-181.5,"t":34981},{"dx":325,"dy":-175.5,"t":35034},{"dx":336,"dy":-185.5,"t":35068},{"dx":346,"dy":-220.5,"t":35123},{"dx":362,"dy":-246.5,"t":35204},{"dx":362,"dy":-219.5,"t":35256},{"dx":361,"dy":-202.5,"t":35285},{"dx":325,"dy":-199.5,"t":35335},{"dx":294,"dy":-208.5,"t":35366},{"dx":260,"dy":-230.5,"t":35418},{"dx":254,"dy":-241.5,"t":35451},{"dx":263,"dy":-212.5,"t":35502},{"dx":284,"dy":-202.5,"t":35533},{"dx":298,"dy":-188.5,"t":35584},{"dx":296,"dy":-191.5,"t":35618},{"dx":293,"dy":-171.5,"t":35672},{"dx":320,"dy":-187.5,"t":35702},{"dx":379,"dy":-167.5,"t":35756},{"dx":418,"dy":-183.5,"t":35786},{"dx":410,"dy":-171.5,"t":35842},{"dx":395,"dy":-176.5,"t":35871},{"dx":388,"dy":-220.5,"t":35924},{"dx":394,"dy":-252.5,"t":35954},{"dx":373,"dy":-268.5,"t":36006},{"dx":355,"dy":-267.5,"t":36037},{"dx":314,"dy":-208.5,"t":36091},{"dx":324,"dy":-202.5,"t":36120},{"dx":344,"dy":-187.5,"t":36169},{"dx":356,"dy":-185.5,"t":36199},{"dx":369,"dy":-212.5,"t":36248},{"dx":377,"dy":-221.5,"t":36282},{"dx":387,"dy":-238.5,"t":36312}],[{"dx":599,"dy":-250,"t":37348},{"dx":595,"dy":-240,"t":37377},{"dx":587,"dy":-214,"t":37427},{"dx":569,"dy":-196,"t":37458},{"dx":443,"dy":-133,"t":37511},{"dx":413,"dy":-111,"t":37541},{"dx":367,"dy":-92,"t":37595},{"dx":362,"dy":-86,"t":37625},{"dx":358,"dy":-96,"t":37675},{"dx":368,"dy":-102,"t":37707},{"dx":463,"dy":-117,"t":37757},{"dx":502,"dy":-124,"t":37788},{"dx":402,"dy":-120,"t":37839},{"dx":365,"dy":-114,"t":37869},{"dx":331,"dy":-116,"t":37920},{"dx":289,"dy":-101,"t":37951},{"dx":256,"dy":-93,"t":38001},{"dx":218,"dy":-82,"t":38033},{"dx":250,"dy":-58,"t":38083},{"dx":232,"dy":-42,"t":38115},{"dx":211,"dy":-61,"t":38167},{"dx":211,"dy":-71,"t":38198},{"dx":257,"dy":-77,"t":38249},{"dx":233,"dy":-79,"t":38280},{"dx":205,"dy":-78,"t":38335},{"dx":198,"dy":-77,"t":38367},{"dx":268,"dy":-99,"t":38418},{"dx":302,"dy":-109,"t":38447},{"dx":340,"dy":-127,"t":38498},{"dx":321,"dy":-122,"t":38529},{"dx":336,"dy":-125,"t":38580},{"dx":331,"dy":-135,"t":38611},{"dx":310,"dy":-141,"t":38661},{"dx":300,"dy":-167,"t":38691},{"dx":350,"dy":-164,"t":38741},{"dx":317,"dy":-144,"t":38774},{"dx":359,"dy":-153,"t":38829},{"dx":370,"dy":-153,"t":38858},{"dx":405,"dy":-173,"t":38910},{"dx":426,"dy":-191,"t":38940},{"dx":379,"dy":-163,"t":38993},{"dx":379,"dy":-151,"t":39023},{"dx":354,"dy":-157,"t":39074},{"dx":356,"dy":-151,"t":39105},{"dx":413,"dy":-116,"t":39157},{"dx":440,"dy":-99,"t":39186},{"dx":484,"dy":-126,"t":39237},{"dx":497,"dy":-146,"t":39268}]],"percent_in_roi":[0,10.204081632653061,18.367346938775512,0,0,0,0,0,0,0,0,0,0],"average_offset":[{"x":603.9387755102041,"y":-127.48979591836735,"r":142.68882504014442},{"x":95.36734693877551,"y":-170.08163265306123,"r":88.14238698363958},{"x":166.3673469387755,"y":-134.46938775510205,"r":60.70712700036189},{"x":359.3958333333333,"y":-128.85416666666666,"r":100.64974155669086},{"x":444.9387755102041,"y":-83.95918367346938,"r":55.15992802124222},{"x":480.7659574468085,"y":-105.95744680851064,"r":42.221215695144494},{"x":598.3877551020408,"y":-184.25510204081633,"r":87.64554147972657},{"x":452.9347826086956,"y":-137.41304347826087,"r":85.59389189936431},{"x":604.625,"y":-139.625,"r":84.50877606207072},{"x":398.8125,"y":-196.97916666666666,"r":160.97762040932216},{"x":487.1,"y":-175.74,"r":111.41792108211442},{"x":352.2916666666667,"y":-208.9375,"r":58.158158354873564},{"x":360.8541666666667,"y":-125.875,"r":101.29621029782786}],"samples_per_sec":"23.65","clicks":15,"pattern":"cond","trial_type":"webgazer-validate","trial_index":25,"time_elapsed":317505,"internal_node_id":"0.0-10.0-3.2","validation_points":[[25,75],[85,85],[75,75],[62.5,37.5],[50,50],[25,25],[37.5,62.5],[15,15],[15,85],[75,25],[37.5,37.5],[62.5,62.5],[85,15]],"user_agent":"Mozilla/5.0 (Macintosh; Intel Mac OS X 10_14_4) AppleWebKit/537.36 (KHTML, like Gecko) Chrome/88.0.4324.192 Safari/537.36","screen_width_px":1440,"screen_height_px":900},{"rt":2368.724999992992,"stimulus":"\n      <p>Round complete.</p>\n      <p>You can move a little bit, but please try to return you head to the same general location before continuing.</p>\n    ","response":0,"trial_type":"html-button-response","trial_index":26,"time_elapsed":319876,"internal_node_id":"0.0-10.0-4.2","user_agent":"Mozilla/5.0 (Macintosh; Intel Mac OS X 10_14_4) AppleWebKit/537.36 (KHTML, like Gecko) Chrome/88.0.4324.192 Safari/537.36","screen_width_px":1440,"screen_height_px":900},{"trial_type":"webgazer-init-camera","trial_index":27,"time_elapsed":351591,"internal_node_id":"0.0-10.0-5.2","user_agent":"Mozilla/5.0 (Macintosh; Intel Mac OS X 10_14_4) AppleWebKit/537.36 (KHTML, like Gecko) Chrome/88.0.4324.192 Safari/537.36","screen_width_px":1440,"screen_height_px":900},{"rt":1240.1300000055926,"stimulus":"\n      <p>Calibration phase next.</p>\n      <p>Click on the dots.</p>\n    ","response":0,"trial_type":"html-button-response","trial_index":28,"time_elapsed":352833,"internal_node_id":"0.0-10.0-0.3","user_agent":"Mozilla/5.0 (Macintosh; Intel Mac OS X 10_14_4) AppleWebKit/537.36 (KHTML, like Gecko) Chrome/88.0.4324.192 Safari/537.36","screen_width_px":1440,"screen_height_px":900},{"trial_type":"webgazer-calibrate","trial_index":29,"time_elapsed":379932,"internal_node_id":"0.0-10.0-1.3","user_agent":"Mozilla/5.0 (Macintosh; Intel Mac OS X 10_14_4) AppleWebKit/537.36 (KHTML, like Gecko) Chrome/88.0.4324.192 Safari/537.36","screen_width_px":1440,"screen_height_px":900},{"rt":1364.5200000028126,"stimulus":"\n      <p>Validation phase next.</p>\n      <p>Look at the dots.</p>\n    ","response":0,"trial_type":"html-button-response","trial_index":30,"time_elapsed":381299,"internal_node_id":"0.0-10.0-2.3","user_agent":"Mozilla/5.0 (Macintosh; Intel Mac OS X 10_14_4) AppleWebKit/537.36 (KHTML, like Gecko) Chrome/88.0.4324.192 Safari/537.36","screen_width_px":1440,"screen_height_px":900},{"raw_gaze":[[{"dx":-312,"dy":58,"t":1083},{"dx":-332,"dy":34,"t":1112},{"dx":-240,"dy":-7,"t":1163},{"dx":-175,"dy":-53,"t":1194},{"dx":-195,"dy":-1,"t":1243},{"dx":-217,"dy":-6,"t":1273},{"dx":-255,"dy":92,"t":1325},{"dx":-252,"dy":125,"t":1356},{"dx":-268,"dy":130,"t":1418},{"dx":-262,"dy":125,"t":1447},{"dx":-152,"dy":107,"t":1497},{"dx":-95,"dy":85,"t":1528},{"dx":-69,"dy":124,"t":1580},{"dx":-74,"dy":138,"t":1609},{"dx":107,"dy":93,"t":1661},{"dx":136,"dy":70,"t":1693},{"dx":13,"dy":67,"t":1746},{"dx":26,"dy":61,"t":1775},{"dx":22,"dy":60,"t":1828},{"dx":50,"dy":64,"t":1859},{"dx":-58,"dy":63,"t":1909},{"dx":-178,"dy":86,"t":1941},{"dx":-211,"dy":88,"t":1992},{"dx":-213,"dy":92,"t":2025},{"dx":-225,"dy":96,"t":2078},{"dx":-243,"dy":114,"t":2108},{"dx":-208,"dy":166,"t":2159},{"dx":-202,"dy":196,"t":2190},{"dx":-204,"dy":172,"t":2244},{"dx":-267,"dy":177,"t":2274},{"dx":-250,"dy":129,"t":2328},{"dx":-236,"dy":110,"t":2358},{"dx":-144,"dy":119,"t":2411},{"dx":-47,"dy":134,"t":2442},{"dx":-125,"dy":140,"t":2494},{"dx":-184,"dy":139,"t":2527},{"dx":-263,"dy":85,"t":2578},{"dx":-312,"dy":40,"t":2611},{"dx":-329,"dy":65,"t":2661},{"dx":-338,"dy":81,"t":2691},{"dx":-269,"dy":75,"t":2742},{"dx":-258,"dy":55,"t":2773},{"dx":-169,"dy":59,"t":2825},{"dx":-153,"dy":59,"t":2858},{"dx":-182,"dy":46,"t":2911},{"dx":-266,"dy":46,"t":2943},{"dx":-265,"dy":106,"t":2996},{"dx":-215,"dy":102,"t":3026},{"dx":-187,"dy":118,"t":3083},{"dx":-161,"dy":110,"t":3095}],[{"dx":-59,"dy":-18.5,"t":4114},{"dx":-33,"dy":-19.5,"t":4166},{"dx":-26,"dy":-6.5,"t":4198},{"dx":2,"dy":0.5,"t":4248},{"dx":31,"dy":-3.5,"t":4278},{"dx":11,"dy":-12.5,"t":4332},{"dx":32,"dy":-38.5,"t":4363},{"dx":48,"dy":-56.5,"t":4414},{"dx":77,"dy":-58.5,"t":4444},{"dx":22,"dy":-16.5,"t":4496},{"dx":-36,"dy":8.5,"t":4530},{"dx":-47,"dy":26.5,"t":4582},{"dx":-13,"dy":23.5,"t":4615},{"dx":93,"dy":-13.5,"t":4666},{"dx":170,"dy":-19.5,"t":4699},{"dx":261,"dy":-35.5,"t":4758},{"dx":307,"dy":-32.5,"t":4789},{"dx":265,"dy":-19.5,"t":4846},{"dx":195,"dy":-10.5,"t":4879},{"dx":64,"dy":12.5,"t":4928},{"dx":6,"dy":24.5,"t":4957},{"dx":6,"dy":29.5,"t":5005},{"dx":25,"dy":21.5,"t":5034},{"dx":52,"dy":17.5,"t":5084},{"dx":69,"dy":21.5,"t":5112},{"dx":84,"dy":47.5,"t":5163},{"dx":84,"dy":65.5,"t":5199},{"dx":47,"dy":40.5,"t":5296},{"dx":19,"dy":24.5,"t":5329},{"dx":44,"dy":-21.5,"t":5381},{"dx":90,"dy":-51.5,"t":5410},{"dx":109,"dy":-47.5,"t":5464},{"dx":67,"dy":-26.5,"t":5496},{"dx":104,"dy":-20.5,"t":5547},{"dx":179,"dy":-39.5,"t":5576},{"dx":242,"dy":-53.5,"t":5628},{"dx":264,"dy":-59.5,"t":5663},{"dx":274,"dy":-32.5,"t":5715},{"dx":291,"dy":-12.5,"t":5745},{"dx":330,"dy":-13.5,"t":5800},{"dx":357,"dy":-29.5,"t":5831},{"dx":215,"dy":19.5,"t":5883},{"dx":139,"dy":33.5,"t":5914},{"dx":132,"dy":34.5,"t":5967},{"dx":144,"dy":36.5,"t":5998},{"dx":208,"dy":42.5,"t":6052},{"dx":264,"dy":47.5,"t":6086},{"dx":179,"dy":40.5,"t":6114}],[{"dx":27,"dy":12.5,"t":7135},{"dx":84,"dy":-12.5,"t":7164},{"dx":133,"dy":-59.5,"t":7214},{"dx":148,"dy":-80.5,"t":7245},{"dx":154,"dy":-109.5,"t":7297},{"dx":148,"dy":-114.5,"t":7327},{"dx":50,"dy":-55.5,"t":7377},{"dx":-14,"dy":-15.5,"t":7408},{"dx":-22,"dy":47.5,"t":7461},{"dx":-30,"dy":81.5,"t":7492},{"dx":-70,"dy":135.5,"t":7541},{"dx":-99,"dy":156.5,"t":7572},{"dx":-93,"dy":103.5,"t":7624},{"dx":-59,"dy":54.5,"t":7654},{"dx":-16,"dy":16.5,"t":7706},{"dx":-11,"dy":12.5,"t":7739},{"dx":-39,"dy":18.5,"t":7792},{"dx":-68,"dy":26.5,"t":7822},{"dx":-73,"dy":-2.5,"t":7875},{"dx":-59,"dy":-13.5,"t":7909},{"dx":-10,"dy":-50.5,"t":7960},{"dx":-13,"dy":-61.5,"t":7994},{"dx":18,"dy":-103.5,"t":8047},{"dx":39,"dy":-120.5,"t":8091},{"dx":45,"dy":-119.5,"t":8141},{"dx":34,"dy":-114.5,"t":8172},{"dx":41,"dy":-92.5,"t":8225},{"dx":87,"dy":-102.5,"t":8255},{"dx":99,"dy":-48.5,"t":8310},{"dx":74,"dy":-6.5,"t":8340},{"dx":49,"dy":25.5,"t":8392},{"dx":34,"dy":48.5,"t":8423},{"dx":34,"dy":44.5,"t":8473},{"dx":32,"dy":32.5,"t":8504},{"dx":89,"dy":-18.5,"t":8559},{"dx":87,"dy":-24.5,"t":8592},{"dx":60,"dy":1.5,"t":8645},{"dx":40,"dy":12.5,"t":8679},{"dx":-32,"dy":48.5,"t":8732},{"dx":-57,"dy":70.5,"t":8765},{"dx":27,"dy":64.5,"t":8817},{"dx":3,"dy":63.5,"t":8848},{"dx":40,"dy":39.5,"t":8897},{"dx":43,"dy":25.5,"t":8929},{"dx":37,"dy":13.5,"t":8983},{"dx":26,"dy":-2.5,"t":9017},{"dx":-15,"dy":-25.5,"t":9072},{"dx":-27,"dy":-40.5,"t":9105},{"dx":-65,"dy":-3.5,"t":9134}],[{"dx":-3,"dy":8.5,"t":10164},{"dx":203,"dy":-31.5,"t":10218},{"dx":272,"dy":-43.5,"t":10249},{"dx":219,"dy":-64.5,"t":10302},{"dx":205,"dy":-75.5,"t":10334},{"dx":85,"dy":-47.5,"t":10386},{"dx":35,"dy":-44.5,"t":10417},{"dx":-96,"dy":-24.5,"t":10470},{"dx":-143,"dy":-5.5,"t":10505},{"dx":-211,"dy":38.5,"t":10558},{"dx":-226,"dy":48.5,"t":10590},{"dx":-177,"dy":68.5,"t":10642},{"dx":-161,"dy":69.5,"t":10677},{"dx":-120,"dy":45.5,"t":10734},{"dx":-11,"dy":30.5,"t":10768},{"dx":-16,"dy":-12.5,"t":10817},{"dx":-22,"dy":-29.5,"t":10846},{"dx":-101,"dy":-37.5,"t":10898},{"dx":-120,"dy":-52.5,"t":10931},{"dx":-130,"dy":-14.5,"t":10984},{"dx":-117,"dy":-10.5,"t":11016},{"dx":-114,"dy":-25.5,"t":11067},{"dx":-114,"dy":-28.5,"t":11098},{"dx":-171,"dy":-35.5,"t":11150},{"dx":-208,"dy":-17.5,"t":11181},{"dx":-181,"dy":-34.5,"t":11235},{"dx":-159,"dy":-56.5,"t":11267},{"dx":-49,"dy":-47.5,"t":11321},{"dx":-28,"dy":-56.5,"t":11351},{"dx":-69,"dy":-75.5,"t":11405},{"dx":-84,"dy":-96.5,"t":11443},{"dx":-170,"dy":-38.5,"t":11494},{"dx":-214,"dy":-15.5,"t":11527},{"dx":-197,"dy":24.5,"t":11584},{"dx":-152,"dy":25.5,"t":11616},{"dx":-16,"dy":22.5,"t":11670},{"dx":25,"dy":40.5,"t":11706},{"dx":2,"dy":57.5,"t":11757},{"dx":11,"dy":77.5,"t":11789},{"dx":-48,"dy":80.5,"t":11841},{"dx":-33,"dy":53.5,"t":11874},{"dx":-41,"dy":51.5,"t":11926},{"dx":-72,"dy":53.5,"t":11960},{"dx":-126,"dy":25.5,"t":12013},{"dx":-128,"dy":37.5,"t":12044},{"dx":-22,"dy":17.5,"t":12094},{"dx":-40,"dy":11.5,"t":12129},{"dx":28,"dy":-17.5,"t":12157}],[{"dx":53,"dy":26,"t":13175},{"dx":78,"dy":30,"t":13209},{"dx":204,"dy":-4,"t":13261},{"dx":233,"dy":-16,"t":13292},{"dx":226,"dy":-41,"t":13347},{"dx":256,"dy":-41,"t":13380},{"dx":340,"dy":-37,"t":13433},{"dx":354,"dy":-21,"t":13464},{"dx":407,"dy":-11,"t":13520},{"dx":482,"dy":-11,"t":13554},{"dx":525,"dy":-17,"t":13603},{"dx":584,"dy":-32,"t":13634},{"dx":468,"dy":-42,"t":13690},{"dx":401,"dy":-44,"t":13722},{"dx":238,"dy":-41,"t":13775},{"dx":176,"dy":-65,"t":13806},{"dx":77,"dy":-68,"t":13858},{"dx":68,"dy":-67,"t":13892},{"dx":63,"dy":-52,"t":13945},{"dx":70,"dy":-41,"t":13975},{"dx":181,"dy":-1,"t":14025},{"dx":243,"dy":24,"t":14057},{"dx":233,"dy":22,"t":14108},{"dx":232,"dy":42,"t":14141},{"dx":205,"dy":54,"t":14193},{"dx":189,"dy":54,"t":14227},{"dx":156,"dy":52,"t":14281},{"dx":164,"dy":36,"t":14311},{"dx":133,"dy":-10,"t":14366},{"dx":169,"dy":-28,"t":14398},{"dx":213,"dy":-25,"t":14451},{"dx":239,"dy":-20,"t":14487},{"dx":340,"dy":-17,"t":14540},{"dx":443,"dy":-37,"t":14572},{"dx":329,"dy":-42,"t":14625},{"dx":317,"dy":-53,"t":14659},{"dx":247,"dy":-34,"t":14710},{"dx":212,"dy":-21,"t":14742},{"dx":279,"dy":6,"t":14796},{"dx":162,"dy":32,"t":14827},{"dx":45,"dy":23,"t":14880},{"dx":108,"dy":6,"t":14910},{"dx":173,"dy":18,"t":14959},{"dx":179,"dy":48,"t":14991},{"dx":216,"dy":66,"t":15042},{"dx":255,"dy":70,"t":15072},{"dx":256,"dy":51,"t":15121},{"dx":256,"dy":30,"t":15156},{"dx":150,"dy":-17,"t":15185}],[{"dx":185,"dy":-13,"t":16209},{"dx":156,"dy":-4,"t":16240},{"dx":118,"dy":16,"t":16290},{"dx":57,"dy":10,"t":16321},{"dx":86,"dy":-7,"t":16372},{"dx":168,"dy":-25,"t":16405},{"dx":201,"dy":-21,"t":16454},{"dx":255,"dy":-5,"t":16486},{"dx":205,"dy":5,"t":16536},{"dx":185,"dy":-5,"t":16567},{"dx":93,"dy":-18,"t":16617},{"dx":48,"dy":-31,"t":16650},{"dx":53,"dy":-66,"t":16704},{"dx":54,"dy":-79,"t":16734},{"dx":-2,"dy":-47,"t":16785},{"dx":-18,"dy":-18,"t":16823},{"dx":161,"dy":-25,"t":16966},{"dx":239,"dy":-40,"t":16994},{"dx":275,"dy":-55,"t":17044},{"dx":355,"dy":-96,"t":17072},{"dx":181,"dy":-81,"t":17122},{"dx":130,"dy":-74,"t":17150},{"dx":85,"dy":-76,"t":17198},{"dx":108,"dy":-66,"t":17227},{"dx":133,"dy":-43,"t":17276},{"dx":111,"dy":-39,"t":17304},{"dx":80,"dy":-43,"t":17352},{"dx":74,"dy":-43,"t":17382},{"dx":159,"dy":-21,"t":17433},{"dx":213,"dy":-1,"t":17462},{"dx":241,"dy":-15,"t":17512},{"dx":264,"dy":-12,"t":17542},{"dx":189,"dy":-34,"t":17591},{"dx":171,"dy":-47,"t":17621},{"dx":124,"dy":-54,"t":17673},{"dx":164,"dy":-54,"t":17705},{"dx":136,"dy":-52,"t":17755},{"dx":81,"dy":-49,"t":17788},{"dx":-3,"dy":-39,"t":17837},{"dx":-34,"dy":-31,"t":17868},{"dx":43,"dy":-72,"t":17918},{"dx":108,"dy":-82,"t":17950},{"dx":171,"dy":-95,"t":17999},{"dx":227,"dy":-107,"t":18031},{"dx":156,"dy":-96,"t":18080},{"dx":111,"dy":-89,"t":18111},{"dx":131,"dy":-91,"t":18162},{"dx":135,"dy":-101,"t":18193},{"dx":43,"dy":-131,"t":18222}],[{"dx":264,"dy":-10.5,"t":19257},{"dx":348,"dy":24.5,"t":19310},{"dx":378,"dy":42.5,"t":19341},{"dx":334,"dy":41.5,"t":19394},{"dx":377,"dy":39.5,"t":19425},{"dx":235,"dy":25.5,"t":19478},{"dx":210,"dy":8.5,"t":19511},{"dx":58,"dy":42.5,"t":19566},{"dx":-15,"dy":38.5,"t":19599},{"dx":-60,"dy":12.5,"t":19651},{"dx":-29,"dy":6.5,"t":19682},{"dx":-33,"dy":4.5,"t":19736},{"dx":-24,"dy":9.5,"t":19766},{"dx":69,"dy":6.5,"t":19816},{"dx":129,"dy":28.5,"t":19849},{"dx":-24,"dy":94.5,"t":19903},{"dx":7,"dy":124.5,"t":19935},{"dx":-70,"dy":156.5,"t":19989},{"dx":-110,"dy":174.5,"t":20018},{"dx":-103,"dy":135.5,"t":20072},{"dx":-67,"dy":116.5,"t":20107},{"dx":49,"dy":127.5,"t":20159},{"dx":39,"dy":120.5,"t":20189},{"dx":111,"dy":109.5,"t":20240},{"dx":139,"dy":110.5,"t":20273},{"dx":301,"dy":86.5,"t":20326},{"dx":417,"dy":65.5,"t":20357},{"dx":545,"dy":47.5,"t":20411},{"dx":611,"dy":25.5,"t":20442},{"dx":473,"dy":54.5,"t":20495},{"dx":436,"dy":74.5,"t":20525},{"dx":299,"dy":81.5,"t":20577},{"dx":223,"dy":66.5,"t":20607},{"dx":-18,"dy":78.5,"t":20658},{"dx":-122,"dy":87.5,"t":20688},{"dx":-248,"dy":74.5,"t":20740},{"dx":-183,"dy":84.5,"t":20771},{"dx":-200,"dy":116.5,"t":20823},{"dx":-184,"dy":143.5,"t":20857},{"dx":-77,"dy":156.5,"t":20907},{"dx":33,"dy":168.5,"t":20937},{"dx":65,"dy":158.5,"t":20984},{"dx":3,"dy":144.5,"t":21015},{"dx":-30,"dy":136.5,"t":21067},{"dx":-68,"dy":117.5,"t":21096},{"dx":-51,"dy":93.5,"t":21146},{"dx":-46,"dy":64.5,"t":21178},{"dx":-10,"dy":90.5,"t":21234},{"dx":104,"dy":100.5,"t":21245}],[{"dx":71,"dy":-195,"t":22270},{"dx":85,"dy":-214,"t":22307},{"dx":92,"dy":-230,"t":22361},{"dx":81,"dy":-238,"t":22391},{"dx":-32,"dy":-184,"t":22443},{"dx":-125,"dy":-137,"t":22475},{"dx":-161,"dy":-161,"t":22530},{"dx":-192,"dy":-175,"t":22562},{"dx":-140,"dy":-187,"t":22615},{"dx":-92,"dy":-192,"t":22644},{"dx":-82,"dy":-207,"t":22697},{"dx":-79,"dy":-207,"t":22731},{"dx":-42,"dy":-204,"t":22786},{"dx":7,"dy":-204,"t":22816},{"dx":-56,"dy":-192,"t":22865},{"dx":26,"dy":-192,"t":22896},{"dx":7,"dy":-172,"t":22951},{"dx":-34,"dy":-185,"t":22990},{"dx":-140,"dy":-167,"t":23045},{"dx":-217,"dy":-133,"t":23075},{"dx":-183,"dy":-164,"t":23128},{"dx":-147,"dy":-185,"t":23157},{"dx":-93,"dy":-233,"t":23207},{"dx":-50,"dy":-256,"t":23238},{"dx":-33,"dy":-254,"t":23291},{"dx":-21,"dy":-252,"t":23324},{"dx":46,"dy":-213,"t":23381},{"dx":81,"dy":-185,"t":23476},{"dx":62,"dy":-150,"t":23526},{"dx":-32,"dy":-110,"t":23558},{"dx":-174,"dy":-98,"t":23610},{"dx":-210,"dy":-89,"t":23643},{"dx":-234,"dy":-123,"t":23696},{"dx":-182,"dy":-149,"t":23728},{"dx":-249,"dy":-155,"t":23780},{"dx":-241,"dy":-170,"t":23812},{"dx":-268,"dy":-187,"t":23869},{"dx":-327,"dy":-173,"t":23902},{"dx":-386,"dy":-139,"t":23955},{"dx":-397,"dy":-126,"t":23985},{"dx":-397,"dy":-109,"t":24046},{"dx":-437,"dy":-81,"t":24078},{"dx":-306,"dy":-86,"t":24131},{"dx":-220,"dy":-100,"t":24162},{"dx":-166,"dy":-98,"t":24214},{"dx":-186,"dy":-92,"t":24248},{"dx":-137,"dy":-126,"t":24277}],[{"dx":-140,"dy":-22,"t":25285},{"dx":-71,"dy":-56,"t":25336},{"dx":-34,"dy":-55,"t":25368},{"dx":-25,"dy":-17,"t":25421},{"dx":-18,"dy":11,"t":25453},{"dx":51,"dy":73,"t":25505},{"dx":118,"dy":86,"t":25538},{"dx":225,"dy":93,"t":25588},{"dx":299,"dy":102,"t":25620},{"dx":163,"dy":101,"t":25673},{"dx":65,"dy":72,"t":25706},{"dx":-34,"dy":57,"t":25758},{"dx":-76,"dy":44,"t":25789},{"dx":-84,"dy":31,"t":25843},{"dx":-89,"dy":32,"t":25874},{"dx":31,"dy":32,"t":25927},{"dx":44,"dy":54,"t":25958},{"dx":93,"dy":89,"t":26008},{"dx":155,"dy":76,"t":26049},{"dx":18,"dy":87,"t":26105},{"dx":-66,"dy":99,"t":26135},{"dx":-213,"dy":84,"t":26184},{"dx":-266,"dy":69,"t":26218},{"dx":-108,"dy":86,"t":26269},{"dx":-78,"dy":92,"t":26300},{"dx":12,"dy":122,"t":26351},{"dx":26,"dy":132,"t":26381},{"dx":117,"dy":132,"t":26434},{"dx":171,"dy":126,"t":26466},{"dx":76,"dy":156,"t":26520},{"dx":111,"dy":170,"t":26553},{"dx":107,"dy":100,"t":26605},{"dx":90,"dy":82,"t":26635},{"dx":53,"dy":83,"t":26686},{"dx":-6,"dy":90,"t":26719},{"dx":-128,"dy":82,"t":26772},{"dx":-186,"dy":73,"t":26803},{"dx":-170,"dy":79,"t":26853},{"dx":-155,"dy":103,"t":26885},{"dx":58,"dy":87,"t":26944},{"dx":232,"dy":60,"t":26973},{"dx":160,"dy":106,"t":27023},{"dx":126,"dy":122,"t":27056},{"dx":124,"dy":139,"t":27108},{"dx":69,"dy":131,"t":27140},{"dx":56,"dy":85,"t":27193},{"dx":-17,"dy":87,"t":27223},{"dx":-51,"dy":101,"t":27279},{"dx":-60,"dy":109,"t":27291}],[{"dx":466,"dy":-1,"t":28304},{"dx":459,"dy":14,"t":28334},{"dx":271,"dy":52,"t":28387},{"dx":221,"dy":61,"t":28422},{"dx":78,"dy":77,"t":28476},{"dx":-16,"dy":67,"t":28506},{"dx":-29,"dy":59,"t":28561},{"dx":31,"dy":36,"t":28593},{"dx":30,"dy":10,"t":28645},{"dx":-1,"dy":11,"t":28679},{"dx":90,"dy":27,"t":28729},{"dx":141,"dy":25,"t":28761},{"dx":132,"dy":43,"t":28817},{"dx":117,"dy":50,"t":28851},{"dx":166,"dy":57,"t":28902},{"dx":153,"dy":60,"t":28942},{"dx":132,"dy":69,"t":28994},{"dx":186,"dy":63,"t":29028},{"dx":332,"dy":75,"t":29081},{"dx":381,"dy":79,"t":29114},{"dx":414,"dy":76,"t":29167},{"dx":404,"dy":67,"t":29198},{"dx":403,"dy":85,"t":29252},{"dx":475,"dy":67,"t":29285},{"dx":416,"dy":34,"t":29338},{"dx":376,"dy":21,"t":29374},{"dx":261,"dy":-5,"t":29479},{"dx":206,"dy":-3,"t":29512},{"dx":75,"dy":21,"t":29564},{"dx":81,"dy":19,"t":29596},{"dx":154,"dy":38,"t":29650},{"dx":253,"dy":16,"t":29681},{"dx":430,"dy":-15,"t":29734},{"dx":505,"dy":-24,"t":29764},{"dx":451,"dy":26,"t":29817},{"dx":460,"dy":23,"t":29848},{"dx":309,"dy":13,"t":29898},{"dx":236,"dy":33,"t":29929},{"dx":284,"dy":9,"t":29980},{"dx":199,"dy":6,"t":30017},{"dx":300,"dy":-1,"t":30067},{"dx":356,"dy":14,"t":30097},{"dx":386,"dy":20,"t":30148},{"dx":367,"dy":36,"t":30181},{"dx":386,"dy":39,"t":30233},{"dx":415,"dy":58,"t":30271},{"dx":280,"dy":94,"t":30301}],[{"dx":-288,"dy":70,"t":31299},{"dx":-192,"dy":83,"t":31375},{"dx":-166,"dy":80,"t":31405},{"dx":-169,"dy":65,"t":31458},{"dx":-218,"dy":66,"t":31490},{"dx":-182,"dy":77,"t":31542},{"dx":-99,"dy":93,"t":31573},{"dx":-115,"dy":105,"t":31625},{"dx":-74,"dy":114,"t":31656},{"dx":25,"dy":77,"t":31708},{"dx":58,"dy":60,"t":31738},{"dx":89,"dy":43,"t":31791},{"dx":91,"dy":41,"t":31822},{"dx":32,"dy":69,"t":31872},{"dx":-22,"dy":88,"t":31904},{"dx":14,"dy":82,"t":31958},{"dx":-6,"dy":80,"t":31992},{"dx":18,"dy":84,"t":32044},{"dx":49,"dy":87,"t":32082},{"dx":115,"dy":75,"t":32134},{"dx":171,"dy":70,"t":32166},{"dx":118,"dy":54,"t":32219},{"dx":44,"dy":51,"t":32252},{"dx":-25,"dy":39,"t":32306},{"dx":-72,"dy":33,"t":32339},{"dx":37,"dy":28,"t":32392},{"dx":42,"dy":35,"t":32423},{"dx":151,"dy":32,"t":32474},{"dx":226,"dy":15,"t":32504},{"dx":369,"dy":20,"t":32558},{"dx":440,"dy":45,"t":32588},{"dx":267,"dy":74,"t":32640},{"dx":180,"dy":86,"t":32670},{"dx":49,"dy":58,"t":32722},{"dx":-28,"dy":37,"t":32758},{"dx":-150,"dy":70,"t":32811},{"dx":-157,"dy":68,"t":32841},{"dx":-29,"dy":45,"t":32895},{"dx":20,"dy":33,"t":32925},{"dx":189,"dy":34,"t":32979},{"dx":295,"dy":45,"t":33012},{"dx":369,"dy":47,"t":33065},{"dx":369,"dy":50,"t":33095},{"dx":277,"dy":61,"t":33146},{"dx":130,"dy":65,"t":33177},{"dx":-64,"dy":45,"t":33230},{"dx":-39,"dy":38,"t":33259},{"dx":-57,"dy":38,"t":33314},{"dx":11,"dy":30,"t":33326}],[{"dx":218,"dy":-22,"t":34343},{"dx":219,"dy":-38,"t":34372},{"dx":261,"dy":-98,"t":34428},{"dx":287,"dy":-128,"t":34459},{"dx":287,"dy":-93,"t":34511},{"dx":275,"dy":-90,"t":34542},{"dx":211,"dy":-61,"t":34596},{"dx":197,"dy":-81,"t":34628},{"dx":137,"dy":-92,"t":34679},{"dx":93,"dy":-90,"t":34712},{"dx":61,"dy":-73,"t":34764},{"dx":56,"dy":-53,"t":34795},{"dx":30,"dy":-31,"t":34853},{"dx":27,"dy":-26,"t":34887},{"dx":103,"dy":-107,"t":34938},{"dx":155,"dy":-149,"t":34971},{"dx":162,"dy":-153,"t":35022},{"dx":131,"dy":-136,"t":35052},{"dx":47,"dy":-98,"t":35103},{"dx":94,"dy":-114,"t":35135},{"dx":70,"dy":-107,"t":35186},{"dx":9,"dy":-93,"t":35217},{"dx":-11,"dy":-107,"t":35269},{"dx":1,"dy":-98,"t":35303},{"dx":57,"dy":-145,"t":35356},{"dx":63,"dy":-159,"t":35388},{"dx":134,"dy":-148,"t":35444},{"dx":154,"dy":-179,"t":35477},{"dx":50,"dy":-134,"t":35579},{"dx":-49,"dy":-115,"t":35611},{"dx":13,"dy":-96,"t":35663},{"dx":43,"dy":-70,"t":35694},{"dx":59,"dy":-39,"t":35748},{"dx":48,"dy":-24,"t":35779},{"dx":72,"dy":-50,"t":35831},{"dx":89,"dy":-65,"t":35862},{"dx":56,"dy":-66,"t":35917},{"dx":28,"dy":-62,"t":35947},{"dx":-26,"dy":-12,"t":36003},{"dx":-81,"dy":0,"t":36034},{"dx":-125,"dy":-32,"t":36083},{"dx":-138,"dy":-45,"t":36121},{"dx":-165,"dy":-54,"t":36176},{"dx":-193,"dy":-62,"t":36205},{"dx":-55,"dy":-74,"t":36256},{"dx":-2,"dy":-81,"t":36287},{"dx":72,"dy":-136,"t":36337},{"dx":121,"dy":-171,"t":36348}],[{"dx":-38,"dy":-63,"t":37373},{"dx":-19,"dy":-33,"t":37424},{"dx":-36,"dy":-22,"t":37455},{"dx":-130,"dy":1,"t":37507},{"dx":-197,"dy":12,"t":37538},{"dx":-6,"dy":-14,"t":37590},{"dx":-25,"dy":-26,"t":37620},{"dx":55,"dy":-19,"t":37670},{"dx":59,"dy":-16,"t":37702},{"dx":136,"dy":-4,"t":37753},{"dx":149,"dy":-11,"t":37784},{"dx":12,"dy":-36,"t":37837},{"dx":-35,"dy":-33,"t":37867},{"dx":46,"dy":-90,"t":37916},{"dx":78,"dy":-116,"t":37950},{"dx":163,"dy":-94,"t":38001},{"dx":188,"dy":-88,"t":38031},{"dx":199,"dy":-47,"t":38081},{"dx":182,"dy":-18,"t":38111},{"dx":255,"dy":-2,"t":38168},{"dx":273,"dy":14,"t":38198},{"dx":246,"dy":12,"t":38249},{"dx":241,"dy":10,"t":38281},{"dx":246,"dy":-24,"t":38332},{"dx":307,"dy":-51,"t":38363},{"dx":299,"dy":-46,"t":38413},{"dx":288,"dy":-39,"t":38445},{"dx":218,"dy":-23,"t":38496},{"dx":198,"dy":-30,"t":38526},{"dx":265,"dy":-76,"t":38576},{"dx":336,"dy":-110,"t":38607},{"dx":444,"dy":-131,"t":38658},{"dx":502,"dy":-139,"t":38689},{"dx":303,"dy":-80,"t":38737},{"dx":261,"dy":-72,"t":38768},{"dx":86,"dy":-19,"t":38820},{"dx":45,"dy":-12,"t":38851},{"dx":66,"dy":-6,"t":38899},{"dx":30,"dy":-4,"t":38934},{"dx":243,"dy":-78,"t":38986},{"dx":362,"dy":-127,"t":39016},{"dx":418,"dy":-107,"t":39067},{"dx":431,"dy":-94,"t":39097},{"dx":413,"dy":-122,"t":39148},{"dx":410,"dy":-128,"t":39179},{"dx":424,"dy":-107,"t":39230},{"dx":399,"dy":-86,"t":39261},{"dx":383,"dy":-91,"t":39311}]],"percent_in_roi":[18,66.66666666666666,89.79591836734694,66.66666666666666,18.367346938775512,51.02040816326531,42.857142857142854,2.127659574468085,63.26530612244898,27.659574468085108,57.14285714285714,58.333333333333336,37.5],"average_offset":[{"x":-178.12,"y":88.68,"r":134.21699286305403},{"x":112.25,"y":-3.1458333333333335,"r":136.28042771909233},{"x":18.571428571428573,"y":-4.948979591836735,"r":70.1978076218822},{"x":-62.604166666666664,"y":-3.1458333333333335,"r":122.88587949817529},{"x":237.28571428571428,"y":-5.428571428571429,"r":84.18504884467069},{"x":134.81632653061226,"y":-46.16326530612245,"r":60.78062916176056},{"x":91.53061224489795,"y":79.76530612244898,"r":153.3890109212095},{"x":-125.74468085106383,"y":-167.63829787234042,"r":115.27951348380563},{"x":15.816326530612244,"y":79.12244897959184,"r":102.41486138123108},{"x":260.0425531914894,"y":36.191489361702125,"r":128.30928462704068},{"x":42.714285714285715,"y":58.87755102040816,"r":107.61284866517677},{"x":69.6875,"y":-86.60416666666667,"r":109.76848240881753},{"x":191.10416666666666,"y":-51.770833333333336,"r":206.85838878994986}],"samples_per_sec":"23.73","clicks":25,"pattern":"cond","trial_type":"webgazer-validate","trial_index":31,"time_elapsed":421626,"internal_node_id":"0.0-10.0-3.3","validation_points":[[85,15],[37.5,37.5],[37.5,62.5],[62.5,62.5],[25,75],[15,85],[62.5,37.5],[85,85],[50,50],[75,25],[25,25],[75,75],[15,15]],"user_agent":"Mozilla/5.0 (Macintosh; Intel Mac OS X 10_14_4) AppleWebKit/537.36 (KHTML, like Gecko) Chrome/88.0.4324.192 Safari/537.36","screen_width_px":1440,"screen_height_px":900},{"rt":27880.409999997937,"stimulus":"\n      <p>Round complete.</p>\n      <p>You can move a little bit, but please try to return you head to the same general location before continuing.</p>\n    ","response":0,"trial_type":"html-button-response","trial_index":32,"time_elapsed":449509,"internal_node_id":"0.0-10.0-4.3","user_agent":"Mozilla/5.0 (Macintosh; Intel Mac OS X 10_14_4) AppleWebKit/537.36 (KHTML, like Gecko) Chrome/88.0.4324.192 Safari/537.36","screen_width_px":1440,"screen_height_px":900},{"trial_type":"webgazer-init-camera","trial_index":33,"time_elapsed":454106,"internal_node_id":"0.0-10.0-5.3","user_agent":"Mozilla/5.0 (Macintosh; Intel Mac OS X 10_14_4) AppleWebKit/537.36 (KHTML, like Gecko) Chrome/88.0.4324.192 Safari/537.36","screen_width_px":1440,"screen_height_px":900},{"rt":804.5249999995576,"stimulus":"\n      <p>Calibration phase next.</p>\n      <p>Click on the dots.</p>\n    ","response":0,"trial_type":"html-button-response","trial_index":34,"time_elapsed":454912,"internal_node_id":"0.0-10.0-0.4","user_agent":"Mozilla/5.0 (Macintosh; Intel Mac OS X 10_14_4) AppleWebKit/537.36 (KHTML, like Gecko) Chrome/88.0.4324.192 Safari/537.36","screen_width_px":1440,"screen_height_px":900},{"trial_type":"webgazer-calibrate","trial_index":35,"time_elapsed":483221,"internal_node_id":"0.0-10.0-1.4","user_agent":"Mozilla/5.0 (Macintosh; Intel Mac OS X 10_14_4) AppleWebKit/537.36 (KHTML, like Gecko) Chrome/88.0.4324.192 Safari/537.36","screen_width_px":1440,"screen_height_px":900},{"rt":1712.069999994128,"stimulus":"\n      <p>Validation phase next.</p>\n      <p>Look at the dots.</p>\n    ","response":0,"trial_type":"html-button-response","trial_index":36,"time_elapsed":484935,"internal_node_id":"0.0-10.0-2.4","user_agent":"Mozilla/5.0 (Macintosh; Intel Mac OS X 10_14_4) AppleWebKit/537.36 (KHTML, like Gecko) Chrome/88.0.4324.192 Safari/537.36","screen_width_px":1440,"screen_height_px":900},{"raw_gaze":[[{"dx":48,"dy":-38,"t":1051},{"dx":-14,"dy":-32,"t":1129},{"dx":-10,"dy":-15,"t":1162},{"dx":-41,"dy":-11,"t":1214},{"dx":-54,"dy":12,"t":1245},{"dx":-44,"dy":-13,"t":1300},{"dx":-53,"dy":-32,"t":1332},{"dx":-29,"dy":-29,"t":1384},{"dx":11,"dy":-34,"t":1416},{"dx":72,"dy":-80,"t":1468},{"dx":108,"dy":-97,"t":1499},{"dx":155,"dy":-126,"t":1548},{"dx":149,"dy":-121,"t":1580},{"dx":149,"dy":-103,"t":1634},{"dx":131,"dy":-113,"t":1666},{"dx":85,"dy":-96,"t":1721},{"dx":89,"dy":-99,"t":1755},{"dx":83,"dy":-84,"t":1808},{"dx":70,"dy":-72,"t":1840},{"dx":36,"dy":-90,"t":1892},{"dx":-10,"dy":-103,"t":1925},{"dx":40,"dy":-97,"t":1978},{"dx":45,"dy":-108,"t":2012},{"dx":51,"dy":-67,"t":2063},{"dx":47,"dy":-76,"t":2098},{"dx":-33,"dy":-63,"t":2150},{"dx":-34,"dy":-69,"t":2180},{"dx":-57,"dy":-14,"t":2232},{"dx":5,"dy":-34,"t":2263},{"dx":12,"dy":-9,"t":2316},{"dx":-6,"dy":-6,"t":2349},{"dx":40,"dy":-20,"t":2401},{"dx":12,"dy":-30,"t":2432},{"dx":56,"dy":-26,"t":2484},{"dx":21,"dy":-20,"t":2515},{"dx":70,"dy":-34,"t":2569},{"dx":47,"dy":-23,"t":2600},{"dx":-22,"dy":27,"t":2653},{"dx":-74,"dy":42,"t":2683},{"dx":-17,"dy":0,"t":2736},{"dx":-3,"dy":-10,"t":2767},{"dx":15,"dy":-8,"t":2823},{"dx":42,"dy":-10,"t":2853},{"dx":8,"dy":11,"t":2906},{"dx":-18,"dy":30,"t":2936},{"dx":-80,"dy":-22,"t":2989},{"dx":-70,"dy":-49,"t":3019},{"dx":-33,"dy":-50,"t":3076},{"dx":-29,"dy":-32,"t":3086}],[{"dx":129,"dy":129,"t":4110},{"dx":159,"dy":129,"t":4141},{"dx":278,"dy":82,"t":4193},{"dx":373,"dy":47,"t":4225},{"dx":227,"dy":39,"t":4279},{"dx":235,"dy":29,"t":4312},{"dx":240,"dy":2,"t":4365},{"dx":286,"dy":-7,"t":4396},{"dx":288,"dy":-14,"t":4447},{"dx":293,"dy":1,"t":4477},{"dx":354,"dy":8,"t":4531},{"dx":392,"dy":13,"t":4573},{"dx":372,"dy":22,"t":4624},{"dx":421,"dy":3,"t":4702},{"dx":274,"dy":21,"t":4754},{"dx":190,"dy":-7,"t":4784},{"dx":140,"dy":-22,"t":4836},{"dx":136,"dy":-38,"t":4866},{"dx":85,"dy":-15,"t":4919},{"dx":-24,"dy":27,"t":4953},{"dx":-62,"dy":30,"t":5007},{"dx":-64,"dy":32,"t":5038},{"dx":15,"dy":-9,"t":5090},{"dx":48,"dy":-30,"t":5121},{"dx":117,"dy":-79,"t":5172},{"dx":145,"dy":-112,"t":5203},{"dx":99,"dy":-91,"t":5256},{"dx":56,"dy":-89,"t":5285},{"dx":62,"dy":-19,"t":5337},{"dx":32,"dy":27,"t":5372},{"dx":-113,"dy":32,"t":5422},{"dx":-113,"dy":27,"t":5453},{"dx":-95,"dy":35,"t":5505},{"dx":-87,"dy":38,"t":5535},{"dx":-109,"dy":53,"t":5587},{"dx":-123,"dy":56,"t":5618},{"dx":-53,"dy":59,"t":5672},{"dx":-29,"dy":59,"t":5706},{"dx":2,"dy":71,"t":5759},{"dx":-15,"dy":86,"t":5790},{"dx":56,"dy":100,"t":5844},{"dx":79,"dy":104,"t":5875},{"dx":181,"dy":58,"t":5926},{"dx":231,"dy":39,"t":5958},{"dx":210,"dy":4,"t":6009},{"dx":161,"dy":1,"t":6044},{"dx":117,"dy":10,"t":6100},{"dx":87,"dy":18,"t":6111}],[{"dx":-321,"dy":169,"t":7110},{"dx":-392,"dy":149,"t":7188},{"dx":-473,"dy":140,"t":7220},{"dx":-394,"dy":124,"t":7272},{"dx":-431,"dy":122,"t":7305},{"dx":-409,"dy":118,"t":7357},{"dx":-381,"dy":101,"t":7387},{"dx":-432,"dy":99,"t":7437},{"dx":-445,"dy":94,"t":7469},{"dx":-431,"dy":77,"t":7522},{"dx":-397,"dy":70,"t":7553},{"dx":-395,"dy":77,"t":7607},{"dx":-397,"dy":77,"t":7640},{"dx":-465,"dy":74,"t":7691},{"dx":-544,"dy":62,"t":7722},{"dx":-412,"dy":38,"t":7773},{"dx":-305,"dy":12,"t":7803},{"dx":-112,"dy":3,"t":7857},{"dx":22,"dy":7,"t":7890},{"dx":-6,"dy":6,"t":7942},{"dx":-31,"dy":9,"t":7973},{"dx":-57,"dy":4,"t":8025},{"dx":-59,"dy":6,"t":8057},{"dx":-250,"dy":26,"t":8109},{"dx":-308,"dy":39,"t":8142},{"dx":-354,"dy":64,"t":8195},{"dx":-314,"dy":82,"t":8225},{"dx":-291,"dy":76,"t":8276},{"dx":-229,"dy":53,"t":8306},{"dx":-185,"dy":14,"t":8355},{"dx":-131,"dy":-3,"t":8387},{"dx":-172,"dy":6,"t":8438},{"dx":-187,"dy":-2,"t":8469},{"dx":-205,"dy":38,"t":8521},{"dx":-188,"dy":54,"t":8552},{"dx":-252,"dy":78,"t":8602},{"dx":-300,"dy":85,"t":8632},{"dx":-351,"dy":75,"t":8690},{"dx":-369,"dy":78,"t":8719},{"dx":-288,"dy":65,"t":8770},{"dx":-209,"dy":41,"t":8802},{"dx":-173,"dy":22,"t":8853},{"dx":-147,"dy":6,"t":8884},{"dx":-109,"dy":28,"t":8936},{"dx":-100,"dy":33,"t":8965},{"dx":-189,"dy":65,"t":9014},{"dx":-220,"dy":76,"t":9047},{"dx":-353,"dy":96,"t":9099},{"dx":-388,"dy":107,"t":9110}],[{"dx":367,"dy":17,"t":10130},{"dx":379,"dy":35,"t":10163},{"dx":396,"dy":39,"t":10217},{"dx":402,"dy":45,"t":10250},{"dx":426,"dy":53,"t":10303},{"dx":437,"dy":53,"t":10332},{"dx":442,"dy":67,"t":10383},{"dx":438,"dy":80,"t":10413},{