[{"rt":3571,"stimulus":"\n      <p>You can elect whether to include your data in our research dataset.</p>\n    ","response":0,"question":"consent","trial_type":"html-button-response","trial_index":0,"time_elapsed":3575,"internal_node_id":"0.0-0.0","user_agent":"Mozilla/5.0 (Macintosh; Intel Mac OS X 10_15_6) AppleWebKit/605.1.15 (KHTML, like Gecko) Version/14.0.3 Safari/605.1.15","screen_width_px":1440,"screen_height_px":900},{"rt":5162,"stimulus":"\n      <p>This experiment uses your camera for eye tracking.</p>\n      <p>No video is saved from this experiment. The only data recorded are predictions about where you are looking.</p>\n      <p>Before we begin, there are a few things to do that can improve the accuracy of the eye tracking.</p>\n    ","response":0,"trial_type":"html-button-response","trial_index":1,"time_elapsed":8740,"internal_node_id":"0.0-1.0","user_agent":"Mozilla/5.0 (Macintosh; Intel Mac OS X 10_15_6) AppleWebKit/605.1.15 (KHTML, like Gecko) Version/14.0.3 Safari/605.1.15","screen_width_px":1440,"screen_height_px":900},{"rt":1785,"stimulus":"\n      <p>If you wear glasses and can complete the task without them, please remove your glasses.</p>\n    ","response":0,"trial_type":"html-button-response","trial_index":2,"time_elapsed":10525,"internal_node_id":"0.0-2.0","user_agent":"Mozilla/5.0 (Macintosh; Intel Mac OS X 10_15_6) AppleWebKit/605.1.15 (KHTML, like Gecko) Version/14.0.3 Safari/605.1.15","screen_width_px":1440,"screen_height_px":900},{"rt":58340,"stimulus":"\n      <p>Please close additional browser tabs and apps running in the background.<br>The eye tracker works best when there are fewer things running at the same time.</p>\n    ","response":0,"trial_type":"html-button-response","trial_index":3,"time_elapsed":68867,"internal_node_id":"0.0-3.0","user_agent":"Mozilla/5.0 (Macintosh; Intel Mac OS X 10_15_6) AppleWebKit/605.1.15 (KHTML, like Gecko) Version/14.0.3 Safari/605.1.15","screen_width_px":1440,"screen_height_px":900},{"rt":3341,"stimulus":"\n      <p>Try to avoid bright lights behind you.<br>The eye tracker works best if your face is well lit from the front.<br>If you can, adjust the lighting in your room.</p>\n    ","response":0,"trial_type":"html-button-response","trial_index":4,"time_elapsed":72209,"internal_node_id":"0.0-4.0","user_agent":"Mozilla/5.0 (Macintosh; Intel Mac OS X 10_15_6) AppleWebKit/605.1.15 (KHTML, like Gecko) Version/14.0.3 Safari/605.1.15","screen_width_px":1440,"screen_height_px":900},{"rt":2526,"stimulus":"\n      <p>In order to participate you must allow the experiment to use your camera.</p>\n      <p>You will be prompted to do this on the next screen.</p>\n    ","response":0,"trial_type":"html-button-response","trial_index":5,"time_elapsed":74737,"internal_node_id":"0.0-5.0","user_agent":"Mozilla/5.0 (Macintosh; Intel Mac OS X 10_15_6) AppleWebKit/605.1.15 (KHTML, like Gecko) Version/14.0.3 Safari/605.1.15","screen_width_px":1440,"screen_height_px":900},{"trial_type":"webgazer-init-camera","trial_index":6,"time_elapsed":95346,"internal_node_id":"0.0-6.0","user_agent":"Mozilla/5.0 (Macintosh; Intel Mac OS X 10_15_6) AppleWebKit/605.1.15 (KHTML, like Gecko) Version/14.0.3 Safari/605.1.15","screen_width_px":1440,"screen_height_px":900},{"rt":1466,"stimulus":"\n      <p>Now you'll complete a series of calibrations and validations.</p>\n      <p>The calibration will be reset after each round, so it is OK to move a little bit<br>in between the end of a validation and the start of the next calibration.</p>\n      <p>Please keep your head still during each round.</p>\n    ","response":0,"trial_type":"html-button-response","trial_index":7,"time_elapsed":96815,"internal_node_id":"0.0-7.0","user_agent":"Mozilla/5.0 (Macintosh; Intel Mac OS X 10_15_6) AppleWebKit/605.1.15 (KHTML, like Gecko) Version/14.0.3 Safari/605.1.15","screen_width_px":1440,"screen_height_px":900},{"success":true,"trial_type":"fullscreen","trial_index":8,"time_elapsed":100441,"internal_node_id":"0.0-8.0","user_agent":"Mozilla/5.0 (Macintosh; Intel Mac OS X 10_15_6) AppleWebKit/605.1.15 (KHTML, like Gecko) Version/14.0.3 Safari/605.1.15","screen_width_px":1440,"screen_height_px":900},{"rt":4899,"stimulus":"\n      <p>During the calibration phase, please look at each dot and click on it.</p>\n      <p>During the validation phase, just look at each dot while it is on the screen.</p>\n    ","response":0,"trial_type":"html-button-response","trial_index":9,"time_elapsed":105341,"internal_node_id":"0.0-9.0","user_agent":"Mozilla/5.0 (Macintosh; Intel Mac OS X 10_15_6) AppleWebKit/605.1.15 (KHTML, like Gecko) Version/14.0.3 Safari/605.1.15","screen_width_px":1440,"screen_height_px":900},{"rt":1248,"stimulus":"\n      <p>Calibration phase next.</p>\n      <p>Click on the dots.</p>\n    ","response":0,"trial_type":"html-button-response","trial_index":10,"time_elapsed":106589,"internal_node_id":"0.0-10.0-0.0","user_agent":"Mozilla/5.0 (Macintosh; Intel Mac OS X 10_15_6) AppleWebKit/605.1.15 (KHTML, like Gecko) Version/14.0.3 Safari/605.1.15","screen_width_px":1440,"screen_height_px":900},{"trial_type":"webgazer-calibrate","trial_index":11,"time_elapsed":127573,"internal_node_id":"0.0-10.0-1.0","user_agent":"Mozilla/5.0 (Macintosh; Intel Mac OS X 10_15_6) AppleWebKit/605.1.15 (KHTML, like Gecko) Version/14.0.3 Safari/605.1.15","screen_width_px":1440,"screen_height_px":900},{"rt":1312,"stimulus":"\n      <p>Validation phase next.</p>\n      <p>Look at the dots.</p>\n    ","response":0,"trial_type":"html-button-response","trial_index":12,"time_elapsed":128886,"internal_node_id":"0.0-10.0-2.0","user_agent":"Mozilla/5.0 (Macintosh; Intel Mac OS X 10_15_6) AppleWebKit/605.1.15 (KHTML, like Gecko) Version/14.0.3 Safari/605.1.15","screen_width_px":1440,"screen_height_px":900},{"raw_gaze":[[{"dx":-360,"dy":227,"t":1047},{"dx":-361,"dy":226,"t":1126},{"dx":-361,"dy":226,"t":1201},{"dx":-361,"dy":226,"t":1271},{"dx":-361,"dy":225,"t":1352},{"dx":-361,"dy":225,"t":1430},{"dx":-361,"dy":226,"t":1503},{"dx":-361,"dy":226,"t":1581},{"dx":-361,"dy":226,"t":1656},{"dx":-361,"dy":226,"t":1736},{"dx":-361,"dy":226,"t":1810},{"dx":-361,"dy":226,"t":1883},{"dx":-361,"dy":226,"t":1961},{"dx":-361,"dy":226,"t":2036},{"dx":-361,"dy":226,"t":2108},{"dx":-361,"dy":226,"t":2192},{"dx":-361,"dy":226,"t":2264},{"dx":-361,"dy":226,"t":2336},{"dx":-361,"dy":226,"t":2413},{"dx":-361,"dy":226,"t":2486},{"dx":-361,"dy":226,"t":2562},{"dx":-361,"dy":226,"t":2636},{"dx":-361,"dy":226,"t":2711},{"dx":-361,"dy":226,"t":2794},{"dx":-361,"dy":226,"t":2867},{"dx":-361,"dy":226,"t":2941},{"dx":-361,"dy":226,"t":3028},{"dx":-361,"dy":226,"t":3100}],[{"dx":-181,"dy":113.5,"t":4107},{"dx":-181,"dy":113.5,"t":4183},{"dx":-181,"dy":113.5,"t":4264},{"dx":-181,"dy":113.5,"t":4336},{"dx":-181,"dy":113.5,"t":4408},{"dx":-181,"dy":113.5,"t":4492},{"dx":-181,"dy":113.5,"t":4566},{"dx":-181,"dy":113.5,"t":4646},{"dx":-181,"dy":113.5,"t":4721},{"dx":-181,"dy":113.5,"t":4794},{"dx":-181,"dy":113.5,"t":4871},{"dx":-181,"dy":113.5,"t":4951},{"dx":-181,"dy":113.5,"t":5024},{"dx":-181,"dy":113.5,"t":5101},{"dx":-181,"dy":113.5,"t":5174},{"dx":-181,"dy":113.5,"t":5249},{"dx":-181,"dy":113.5,"t":5329},{"dx":-181,"dy":113.5,"t":5402},{"dx":-181,"dy":113.5,"t":5477},{"dx":-181,"dy":113.5,"t":5558},{"dx":-181,"dy":113.5,"t":5633},{"dx":-181,"dy":113.5,"t":5718},{"dx":-181,"dy":113.5,"t":5793},{"dx":-181,"dy":113.5,"t":5865},{"dx":-181,"dy":113.5,"t":5939},{"dx":-181,"dy":113.5,"t":6017},{"dx":-181,"dy":113.5,"t":6101}],[{"dx":503,"dy":-314,"t":7115},{"dx":503,"dy":-314,"t":7193},{"dx":503,"dy":-314,"t":7270},{"dx":503,"dy":-314,"t":7348},{"dx":503,"dy":-314,"t":7422},{"dx":503,"dy":-314,"t":7496},{"dx":503,"dy":-314,"t":7585},{"dx":503,"dy":-314,"t":7667},{"dx":503,"dy":-314,"t":7744},{"dx":503,"dy":-314,"t":7827},{"dx":503,"dy":-314,"t":7899},{"dx":503,"dy":-314,"t":7978},{"dx":503,"dy":-314,"t":8055},{"dx":503,"dy":-314,"t":8127},{"dx":503,"dy":-314,"t":8210},{"dx":503,"dy":-314,"t":8284},{"dx":503,"dy":-314,"t":8361},{"dx":503,"dy":-314,"t":8439},{"dx":503,"dy":-314,"t":8513},{"dx":503,"dy":-314,"t":8595},{"dx":503,"dy":-314,"t":8676},{"dx":503,"dy":-314,"t":8748},{"dx":503,"dy":-314,"t":8830},{"dx":503,"dy":-314,"t":8904},{"dx":503,"dy":-314,"t":8978},{"dx":503,"dy":-314,"t":9068},{"dx":503,"dy":-314,"t":9147}],[{"dx":179,"dy":113.5,"t":10183},{"dx":179,"dy":113.5,"t":10264},{"dx":179,"dy":113.5,"t":10343},{"dx":179,"dy":113.5,"t":10426},{"dx":179,"dy":113.5,"t":10502},{"dx":179,"dy":113.5,"t":10576},{"dx":179,"dy":113.5,"t":10656},{"dx":179,"dy":113.5,"t":10731},{"dx":179,"dy":113.5,"t":10811},{"dx":179,"dy":113.5,"t":10895},{"dx":179,"dy":113.5,"t":10968},{"dx":179,"dy":113.5,"t":11045},{"dx":179,"dy":113.5,"t":11118},{"dx":179,"dy":113.5,"t":11200},{"dx":179,"dy":113.5,"t":11280},{"dx":179,"dy":113.5,"t":11352},{"dx":179,"dy":113.5,"t":11423},{"dx":179,"dy":113.5,"t":11505},{"dx":179,"dy":113.5,"t":11583},{"dx":179,"dy":113.5,"t":11660},{"dx":179,"dy":113.5,"t":11736},{"dx":179,"dy":113.5,"t":11816},{"dx":179,"dy":113.5,"t":11891},{"dx":179,"dy":113.5,"t":11970},{"dx":179,"dy":113.5,"t":12043},{"dx":179,"dy":113.5,"t":12123},{"dx":179,"dy":113.5,"t":12207}],[{"dx":179,"dy":-111.5,"t":13246},{"dx":179,"dy":-111.5,"t":13320},{"dx":179,"dy":-111.5,"t":13397},{"dx":179,"dy":-111.5,"t":13476},{"dx":179,"dy":-111.5,"t":13548},{"dx":179,"dy":-111.5,"t":13624},{"dx":179,"dy":-111.5,"t":13712},{"dx":179,"dy":-111.5,"t":13784},{"dx":179,"dy":-111.5,"t":13866},{"dx":179,"dy":-111.5,"t":13945},{"dx":179,"dy":-111.5,"t":14020},{"dx":179,"dy":-111.5,"t":14097},{"dx":179,"dy":-111.5,"t":14176},{"dx":179,"dy":-111.5,"t":14249},{"dx":179,"dy":-111.5,"t":14332},{"dx":179,"dy":-111.5,"t":14406},{"dx":179,"dy":-111.5,"t":14487},{"dx":179,"dy":-111.5,"t":14563},{"dx":179,"dy":-111.5,"t":14638},{"dx":179,"dy":-111.5,"t":14718},{"dx":179,"dy":-111.5,"t":14817},{"dx":179,"dy":-111.5,"t":14897},{"dx":179,"dy":-111.5,"t":14970},{"dx":179,"dy":-111.5,"t":15049},{"dx":179,"dy":-111.5,"t":15125},{"dx":179,"dy":-111.5,"t":15205},{"dx":179,"dy":-111.5,"t":15279}],[{"dx":359,"dy":226,"t":16313},{"dx":359,"dy":226,"t":16394},{"dx":359,"dy":226,"t":16468},{"dx":359,"dy":226,"t":16549},{"dx":359,"dy":226,"t":16622},{"dx":359,"dy":226,"t":16698},{"dx":359,"dy":226,"t":16777},{"dx":359,"dy":226,"t":16852},{"dx":359,"dy":226,"t":16927},{"dx":359,"dy":226,"t":17008},{"dx":359,"dy":226,"t":17080},{"dx":359,"dy":226,"t":17153},{"dx":359,"dy":226,"t":17236},{"dx":359,"dy":226,"t":17306},{"dx":359,"dy":226,"t":17378},{"dx":359,"dy":226,"t":17454},{"dx":359,"dy":226,"t":17531},{"dx":359,"dy":226,"t":17604},{"dx":359,"dy":226,"t":17685},{"dx":359,"dy":226,"t":17760},{"dx":359,"dy":226,"t":17838},{"dx":359,"dy":226,"t":17910},{"dx":359,"dy":226,"t":17979},{"dx":359,"dy":226,"t":18063},{"dx":359,"dy":226,"t":18136},{"dx":359,"dy":226,"t":18210},{"dx":359,"dy":226,"t":18291}],[{"dx":-505,"dy":-314,"t":19298},{"dx":-505,"dy":-314,"t":19372},{"dx":-505,"dy":-314,"t":19454},{"dx":-505,"dy":-314,"t":19534},{"dx":-505,"dy":-314,"t":19607},{"dx":-505,"dy":-314,"t":19682},{"dx":-505,"dy":-314,"t":19765},{"dx":-505,"dy":-314,"t":19840},{"dx":-505,"dy":-314,"t":19916},{"dx":-505,"dy":-314,"t":19992},{"dx":-505,"dy":-314,"t":20068},{"dx":-505,"dy":-314,"t":20147},{"dx":-505,"dy":-314,"t":20221},{"dx":-505,"dy":-314,"t":20305},{"dx":-505,"dy":-314,"t":20382},{"dx":-505,"dy":-314,"t":20457},{"dx":-505,"dy":-314,"t":20533},{"dx":-505,"dy":-314,"t":20611},{"dx":-505,"dy":-314,"t":20689},{"dx":-505,"dy":-314,"t":20761},{"dx":-505,"dy":-314,"t":20842},{"dx":-505,"dy":-314,"t":20917},{"dx":-505,"dy":-314,"t":20994},{"dx":-505,"dy":-314,"t":21072},{"dx":-505,"dy":-314,"t":21145},{"dx":-505,"dy":-314,"t":21224},{"dx":-505,"dy":-314,"t":21305}],[{"dx":-361,"dy":-224,"t":22309},{"dx":-361,"dy":-224,"t":22386},{"dx":-361,"dy":-224,"t":22463},{"dx":-361,"dy":-224,"t":22538},{"dx":-361,"dy":-224,"t":22616},{"dx":-361,"dy":-224,"t":22691},{"dx":-361,"dy":-224,"t":22766},{"dx":-361,"dy":-224,"t":22852},{"dx":-361,"dy":-224,"t":22921},{"dx":-361,"dy":-224,"t":22993},{"dx":-361,"dy":-224,"t":23073},{"dx":-361,"dy":-224,"t":23147},{"dx":-361,"dy":-224,"t":23222},{"dx":-361,"dy":-224,"t":23302},{"dx":-361,"dy":-224,"t":23375},{"dx":-361,"dy":-224,"t":23445},{"dx":-361,"dy":-224,"t":23523},{"dx":-361,"dy":-224,"t":23595},{"dx":-361,"dy":-224,"t":23678},{"dx":-361,"dy":-224,"t":23755},{"dx":-361,"dy":-224,"t":23831},{"dx":-361,"dy":-224,"t":23914},{"dx":-361,"dy":-224,"t":23988},{"dx":-361,"dy":-224,"t":24061},{"dx":-361,"dy":-224,"t":24144},{"dx":-361,"dy":-224,"t":24216},{"dx":-361,"dy":-224,"t":24287},{"dx":-361,"dy":-224,"t":24366}],[{"dx":503,"dy":316,"t":25398},{"dx":503,"dy":316,"t":25472},{"dx":503,"dy":316,"t":25544},{"dx":503,"dy":316,"t":25626},{"dx":503,"dy":316,"t":25701},{"dx":503,"dy":316,"t":25779},{"dx":503,"dy":316,"t":25859},{"dx":503,"dy":316,"t":25936},{"dx":503,"dy":316,"t":26010},{"dx":503,"dy":316,"t":26089},{"dx":503,"dy":316,"t":26165},{"dx":503,"dy":316,"t":26251},{"dx":503,"dy":316,"t":26331},{"dx":503,"dy":316,"t":26406},{"dx":503,"dy":316,"t":26492},{"dx":503,"dy":316,"t":26573},{"dx":503,"dy":316,"t":26647},{"dx":503,"dy":316,"t":26780},{"dx":503,"dy":316,"t":26874},{"dx":503,"dy":316,"t":26958},{"dx":503,"dy":316,"t":27061},{"dx":503,"dy":316,"t":27137},{"dx":503,"dy":316,"t":27213},{"dx":503,"dy":316,"t":27289},{"dx":503,"dy":316,"t":27358},{"dx":503,"dy":316,"t":27436}],[{"dx":359,"dy":-224,"t":28433},{"dx":359,"dy":-224,"t":28513},{"dx":359,"dy":-224,"t":28598},{"dx":359,"dy":-224,"t":28678},{"dx":359,"dy":-224,"t":28751},{"dx":359,"dy":-224,"t":28830},{"dx":359,"dy":-224,"t":28903},{"dx":359,"dy":-224,"t":28978},{"dx":359,"dy":-224,"t":29053},{"dx":359,"dy":-224,"t":29126},{"dx":359,"dy":-224,"t":29203},{"dx":359,"dy":-224,"t":29284},{"dx":359,"dy":-224,"t":29356},{"dx":359,"dy":-224,"t":29434},{"dx":359,"dy":-224,"t":29507},{"dx":359,"dy":-224,"t":29583},{"dx":359,"dy":-224,"t":29662},{"dx":359,"dy":-224,"t":29741},{"dx":359,"dy":-224,"t":29820},{"dx":359,"dy":-224,"t":29900},{"dx":359,"dy":-224,"t":29973},{"dx":359,"dy":-224,"t":30049},{"dx":359,"dy":-224,"t":30128},{"dx":359,"dy":-224,"t":30203},{"dx":359,"dy":-224,"t":30275},{"dx":359,"dy":-224,"t":30354},{"dx":359,"dy":-224,"t":30427},{"dx":359,"dy":-224,"t":30504}],[{"dx":-505,"dy":316,"t":31517},{"dx":-505,"dy":316,"t":31602},{"dx":-505,"dy":316,"t":31690},{"dx":-505,"dy":316,"t":31774},{"dx":-505,"dy":316,"t":31853},{"dx":-505,"dy":316,"t":31923},{"dx":-505,"dy":316,"t":31999},{"dx":-505,"dy":316,"t":32078},{"dx":-505,"dy":316,"t":32151},{"dx":-505,"dy":316,"t":32228},{"dx":-505,"dy":316,"t":32301},{"dx":-505,"dy":316,"t":32384},{"dx":-505,"dy":316,"t":32462},{"dx":-505,"dy":316,"t":32536},{"dx":-505,"dy":316,"t":32614},{"dx":-505,"dy":316,"t":32696},{"dx":-505,"dy":316,"t":32774},{"dx":-505,"dy":316,"t":32849},{"dx":-505,"dy":316,"t":32925},{"dx":-505,"dy":316,"t":32999},{"dx":-505,"dy":316,"t":33076},{"dx":-505,"dy":316,"t":33156},{"dx":-505,"dy":316,"t":33229},{"dx":-505,"dy":316,"t":33308},{"dx":-505,"dy":316,"t":33391},{"dx":-505,"dy":316,"t":33462},{"dx":-505,"dy":316,"t":33542}],[{"dx":-181,"dy":-111.5,"t":34554},{"dx":-181,"dy":-111.5,"t":34632},{"dx":-181,"dy":-111.5,"t":34710},{"dx":-181,"dy":-111.5,"t":34792},{"dx":-181,"dy":-111.5,"t":34874},{"dx":-181,"dy":-111.5,"t":34950},{"dx":-181,"dy":-111.5,"t":35025},{"dx":-181,"dy":-111.5,"t":35099},{"dx":-181,"dy":-111.5,"t":35183},{"dx":-181,"dy":-111.5,"t":35260},{"dx":-181,"dy":-111.5,"t":35334},{"dx":-181,"dy":-111.5,"t":35410},{"dx":-181,"dy":-111.5,"t":35493},{"dx":-181,"dy":-111.5,"t":35566},{"dx":-181,"dy":-111.5,"t":35640},{"dx":-181,"dy":-111.5,"t":35721},{"dx":-181,"dy":-111.5,"t":35795},{"dx":-181,"dy":-111.5,"t":35868},{"dx":-181,"dy":-111.5,"t":35949},{"dx":-181,"dy":-111.5,"t":36022},{"dx":-181,"dy":-111.5,"t":36095},{"dx":-181,"dy":-111.5,"t":36171},{"dx":-181,"dy":-111.5,"t":36251},{"dx":-181,"dy":-111.5,"t":36326},{"dx":-181,"dy":-111.5,"t":36399},{"dx":-181,"dy":-111.5,"t":36471},{"dx":-181,"dy":-111.5,"t":36552}],[{"dx":-1,"dy":1,"t":37590},{"dx":-1,"dy":1,"t":37665},{"dx":-1,"dy":1,"t":37743},{"dx":-1,"dy":1,"t":37823},{"dx":-1,"dy":1,"t":37897},{"dx":-1,"dy":1,"t":37972},{"dx":-1,"dy":1,"t":38055},{"dx":-1,"dy":1,"t":38126},{"dx":-1,"dy":1,"t":38201},{"dx":-1,"dy":1,"t":38280},{"dx":-1,"dy":1,"t":38362},{"dx":-1,"dy":1,"t":38440},{"dx":-1,"dy":1,"t":38517},{"dx":-1,"dy":1,"t":38591},{"dx":-1,"dy":1,"t":38680},{"dx":-1,"dy":1,"t":38765},{"dx":-1,"dy":1,"t":38841},{"dx":-1,"dy":1,"t":38922},{"dx":-1,"dy":1,"t":38995},{"dx":-1,"dy":1,"t":39068},{"dx":-1,"dy":1,"t":39150},{"dx":-1,"dy":1,"t":39220},{"dx":-1,"dy":1,"t":39295},{"dx":-1,"dy":1,"t":39372},{"dx":-1,"dy":1,"t":39458},{"dx":-1,"dy":1,"t":39535}]],"percent_in_roi":[0,0,0,0,0,0,0,0,0,0,0,0,100],"average_offset":[{"x":-360.9642857142857,"y":225.96428571428572,"r":0.07576144084139859},{"x":-181,"y":113.5,"r":0},{"x":503,"y":-314,"r":0},{"x":179,"y":113.5,"r":0},{"x":179,"y":-111.5,"r":0},{"x":359,"y":226,"r":0},{"x":-505,"y":-314,"r":0},{"x":-361,"y":-224,"r":0},{"x":503,"y":316,"r":0},{"x":359,"y":-224,"r":0},{"x":-505,"y":316,"r":0},{"x":-181,"y":-111.5,"r":0},{"x":-1,"y":1,"r":0}],"samples_per_sec":"12.91","clicks":15,"pattern":"cond","trial_type":"webgazer-validate","trial_index":13,"time_elapsed":169467,"internal_node_id":"0.0-10.0-3.0","validation_points":[[75,25],[62.5,37.5],[15,85],[37.5,37.5],[37.5,62.5],[25,25],[85,85],[75,75],[15,15],[25,75],[85,15],[62.5,62.5],[50,50]],"user_agent":"Mozilla/5.0 (Macintosh; Intel Mac OS X 10_15_6) AppleWebKit/605.1.15 (KHTML, like Gecko) Version/14.0.3 Safari/605.1.15","screen_width_px":1440,"screen_height_px":900},{"rt":3775,"stimulus":"\n      <p>Round complete.</p>\n      <p>You can move a little bit, but please try to return you head to the same general location before continuing.</p>\n    ","response":0,"trial_type":"html-button-response","trial_index":14,"time_elapsed":173247,"internal_node_id":"0.0-10.0-4.0","user_agent":"Mozilla/5.0 (Macintosh; Intel Mac OS X 10_15_6) AppleWebKit/605.1.15 (KHTML, like Gecko) Version/14.0.3 Safari/605.1.15","screen_width_px":1440,"screen_height_px":900},{"trial_type":"webgazer-init-camera","trial_index":15,"time_elapsed":177261,"internal_node_id":"0.0-10.0-5.0","user_agent":"Mozilla/5.0 (Macintosh; Intel Mac OS X 10_15_6) AppleWebKit/605.1.15 (KHTML, like Gecko) Version/14.0.3 Safari/605.1.15","screen_width_px":1440,"screen_height_px":900},{"rt":1709,"stimulus":"\n      <p>Calibration phase next.</p>\n      <p>Click on the dots.</p>\n    ","response":0,"trial_type":"html-button-response","trial_index":16,"time_elapsed":178973,"internal_node_id":"0.0-10.0-0.1","user_agent":"Mozilla/5.0 (Macintosh; Intel Mac OS X 10_15_6) AppleWebKit/605.1.15 (KHTML, like Gecko) Version/14.0.3 Safari/605.1.15","screen_width_px":1440,"screen_height_px":900},{"trial_type":"webgazer-calibrate","trial_index":17,"time_elapsed":215853,"internal_node_id":"0.0-10.0-1.1","user_agent":"Mozilla/5.0 (Macintosh; Intel Mac OS X 10_15_6) AppleWebKit/605.1.15 (KHTML, like Gecko) Version/14.0.3 Safari/605.1.15","screen_width_px":1440,"screen_height_px":900},{"rt":1381,"stimulus":"\n      <p>Validation phase next.</p>\n      <p>Look at the dots.</p>\n    ","response":0,"trial_type":"html-button-response","trial_index":18,"time_elapsed":217234,"internal_node_id":"0.0-10.0-2.1","user_agent":"Mozilla/5.0 (Macintosh; Intel Mac OS X 10_15_6) AppleWebKit/605.1.15 (KHTML, like Gecko) Version/14.0.3 Safari/605.1.15","screen_width_px":1440,"screen_height_px":900},{"raw_gaze":[[{"dx":177,"dy":114.5,"t":1047},{"dx":178,"dy":113.5,"t":1123},{"dx":179,"dy":112.5,"t":1208},{"dx":179,"dy":112.5,"t":1287},{"dx":180,"dy":112.5,"t":1374},{"dx":180,"dy":112.5,"t":1454},{"dx":180,"dy":113.5,"t":1535},{"dx":179,"dy":113.5,"t":1617},{"dx":179,"dy":113.5,"t":1701},{"dx":179,"dy":113.5,"t":1779},{"dx":179,"dy":113.5,"t":1864},{"dx":179,"dy":113.5,"t":1941},{"dx":179,"dy":113.5,"t":2029},{"dx":179,"dy":113.5,"t":2106},{"dx":179,"dy":113.5,"t":2185},{"dx":179,"dy":113.5,"t":2270},{"dx":179,"dy":113.5,"t":2351},{"dx":179,"dy":113.5,"t":2429},{"dx":179,"dy":113.5,"t":2516},{"dx":179,"dy":113.5,"t":2597},{"dx":179,"dy":113.5,"t":2685},{"dx":179,"dy":113.5,"t":2766},{"dx":179,"dy":113.5,"t":2842},{"dx":179,"dy":113.5,"t":2918},{"dx":179,"dy":113.5,"t":2994},{"dx":179,"dy":113.5,"t":3068}],[{"dx":-181,"dy":-111.5,"t":4080},{"dx":-181,"dy":-111.5,"t":4159},{"dx":-181,"dy":-111.5,"t":4232},{"dx":-181,"dy":-111.5,"t":4312},{"dx":-181,"dy":-111.5,"t":4387},{"dx":-181,"dy":-111.5,"t":4470},{"dx":-181,"dy":-111.5,"t":4553},{"dx":-181,"dy":-111.5,"t":4632},{"dx":-181,"dy":-111.5,"t":4711},{"dx":-181,"dy":-111.5,"t":4793},{"dx":-181,"dy":-111.5,"t":4866},{"dx":-181,"dy":-111.5,"t":4946},{"dx":-181,"dy":-111.5,"t":5023},{"dx":-181,"dy":-111.5,"t":5099},{"dx":-181,"dy":-111.5,"t":5179},{"dx":-181,"dy":-111.5,"t":5251},{"dx":-181,"dy":-111.5,"t":5328},{"dx":-181,"dy":-111.5,"t":5407},{"dx":-181,"dy":-111.5,"t":5487},{"dx":-181,"dy":-111.5,"t":5571},{"dx":-181,"dy":-111.5,"t":5656},{"dx":-181,"dy":-111.5,"t":5735},{"dx":-181,"dy":-111.5,"t":5810},{"dx":-181,"dy":-111.5,"t":5893},{"dx":-181,"dy":-111.5,"t":5966},{"dx":-181,"dy":-111.5,"t":6042},{"dx":-181,"dy":-111.5,"t":6120}],[{"dx":-1,"dy":1,"t":7143},{"dx":-1,"dy":1,"t":7241},{"dx":-1,"dy":1,"t":7327},{"dx":-1,"dy":1,"t":7407},{"dx":-1,"dy":1,"t":7503},{"dx":-1,"dy":1,"t":7635},{"dx":-1,"dy":1,"t":7747},{"dx":-1,"dy":1,"t":7838},{"dx":-1,"dy":1,"t":7978},{"dx":-1,"dy":1,"t":8087},{"dx":-1,"dy":1,"t":8207},{"dx":-1,"dy":1,"t":8351},{"dx":-1,"dy":1,"t":8483},{"dx":-1,"dy":1,"t":8597},{"dx":-1,"dy":1,"t":8686},{"dx":-1,"dy":1,"t":8767},{"dx":-1,"dy":1,"t":8843},{"dx":-1,"dy":1,"t":8919},{"dx":-1,"dy":1,"t":9004},{"dx":-1,"dy":1,"t":9087},{"dx":-1,"dy":1,"t":9164}],[{"dx":359,"dy":-224,"t":10184},{"dx":359,"dy":-224,"t":10263},{"dx":359,"dy":-224,"t":10348},{"dx":359,"dy":-224,"t":10424},{"dx":359,"dy":-224,"t":10505},{"dx":359,"dy":-224,"t":10583},{"dx":359,"dy":-224,"t":10673},{"dx":359,"dy":-224,"t":10747},{"dx":359,"dy":-224,"t":10822},{"dx":359,"dy":-224,"t":10905},{"dx":359,"dy":-224,"t":10982},{"dx":359,"dy":-224,"t":11053},{"dx":359,"dy":-224,"t":11127},{"dx":359,"dy":-224,"t":11207},{"dx":359,"dy":-224,"t":11277},{"dx":359,"dy":-224,"t":11351},{"dx":359,"dy":-224,"t":11430},{"dx":359,"dy":-224,"t":11505},{"dx":359,"dy":-224,"t":11579},{"dx":359,"dy":-224,"t":11658},{"dx":359,"dy":-224,"t":11733},{"dx":359,"dy":-224,"t":11810},{"dx":359,"dy":-224,"t":11886},{"dx":359,"dy":-224,"t":11962},{"dx":359,"dy":-224,"t":12052},{"dx":359,"dy":-224,"t":12218}],[{"dx":179,"dy":-111.5,"t":13233},{"dx":179,"dy":-111.5,"t":13306},{"dx":179,"dy":-111.5,"t":13388},{"dx":179,"dy":-111.5,"t":13473},{"dx":179,"dy":-111.5,"t":13551},{"dx":179,"dy":-111.5,"t":13636},{"dx":179,"dy":-111.5,"t":13712},{"dx":179,"dy":-111.5,"t":13785},{"dx":179,"dy":-111.5,"t":13867},{"dx":179,"dy":-111.5,"t":13940},{"dx":179,"dy":-111.5,"t":14014},{"dx":179,"dy":-111.5,"t":14091},{"dx":179,"dy":-111.5,"t":14165},{"dx":179,"dy":-111.5,"t":14244},{"dx":179,"dy":-111.5,"t":14318},{"dx":179,"dy":-111.5,"t":14394},{"dx":179,"dy":-111.5,"t":14476},{"dx":179,"dy":-111.5,"t":14549},{"dx":179,"dy":-111.5,"t":14625},{"dx":179,"dy":-111.5,"t":14708},{"dx":179,"dy":-111.5,"t":14779},{"dx":179,"dy":-111.5,"t":14857},{"dx":179,"dy":-111.5,"t":14931},{"dx":179,"dy":-111.5,"t":15003},{"dx":179,"dy":-111.5,"t":15084},{"dx":179,"dy":-111.5,"t":15160},{"dx":179,"dy":-111.5,"t":15247}],[{"dx":503,"dy":316,"t":16285},{"dx":503,"dy":316,"t":16361},{"dx":503,"dy":316,"t":16440},{"dx":503,"dy":316,"t":16518},{"dx":503,"dy":316,"t":16596},{"dx":503,"dy":316,"t":16680},{"dx":503,"dy":316,"t":16763},{"dx":503,"dy":316,"t":16836},{"dx":503,"dy":316,"t":16915},{"dx":503,"dy":316,"t":16989},{"dx":503,"dy":316,"t":17064},{"dx":503,"dy":316,"t":17147},{"dx":503,"dy":316,"t":17217},{"dx":503,"dy":316,"t":17295},{"dx":503,"dy":316,"t":17380},{"dx":503,"dy":316,"t":17454},{"dx":503,"dy":316,"t":17532},{"dx":503,"dy":316,"t":17611},{"dx":503,"dy":316,"t":17684},{"dx":503,"dy":316,"t":17756},{"dx":503,"dy":316,"t":17836},{"dx":503,"dy":316,"t":17911},{"dx":503,"dy":316,"t":17986},{"dx":503,"dy":316,"t":18064},{"dx":503,"dy":316,"t":18134},{"dx":503,"dy":316,"t":18219},{"dx":503,"dy":316,"t":18298}],[{"dx":-361,"dy":-224,"t":19305},{"dx":-361,"dy":-224,"t":19383},{"dx":-361,"dy":-224,"t":19460},{"dx":-361,"dy":-224,"t":19551},{"dx":-361,"dy":-224,"t":19623},{"dx":-361,"dy":-224,"t":19701},{"dx":-361,"dy":-224,"t":19787},{"dx":-361,"dy":-224,"t":19860},{"dx":-361,"dy":-224,"t":19936},{"dx":-361,"dy":-224,"t":20013},{"dx":-361,"dy":-224,"t":20091},{"dx":-361,"dy":-224,"t":20174},{"dx":-361,"dy":-224,"t":20250},{"dx":-361,"dy":-224,"t":20329},{"dx":-361,"dy":-224,"t":20414},{"dx":-361,"dy":-224,"t":20486},{"dx":-361,"dy":-224,"t":20562},{"dx":-361,"dy":-224,"t":20641},{"dx":-361,"dy":-224,"t":20715},{"dx":-361,"dy":-224,"t":20789},{"dx":-361,"dy":-224,"t":20871},{"dx":-361,"dy":-224,"t":20963},{"dx":-361,"dy":-224,"t":21045},{"dx":-361,"dy":-224,"t":21121},{"dx":-361,"dy":-224,"t":21195},{"dx":-361,"dy":-224,"t":21276},{"dx":-361,"dy":-224,"t":21354}],[{"dx":-361,"dy":226,"t":22378},{"dx":-361,"dy":226,"t":22460},{"dx":-361,"dy":226,"t":22547},{"dx":-361,"dy":226,"t":22621},{"dx":-361,"dy":226,"t":22699},{"dx":-361,"dy":226,"t":22782},{"dx":-361,"dy":226,"t":22860},{"dx":-361,"dy":226,"t":22947},{"dx":-361,"dy":226,"t":23020},{"dx":-361,"dy":226,"t":23098},{"dx":-361,"dy":226,"t":23179},{"dx":-361,"dy":226,"t":23251},{"dx":-361,"dy":226,"t":23340},{"dx":-361,"dy":226,"t":23421},{"dx":-361,"dy":226,"t":23493},{"dx":-361,"dy":226,"t":23578},{"dx":-361,"dy":226,"t":23661},{"dx":-361,"dy":226,"t":23735},{"dx":-361,"dy":226,"t":23821},{"dx":-361,"dy":226,"t":23895},{"dx":-361,"dy":226,"t":23973},{"dx":-361,"dy":226,"t":24051},{"dx":-361,"dy":226,"t":24124},{"dx":-361,"dy":226,"t":24221},{"dx":-361,"dy":226,"t":24295},{"dx":-361,"dy":226,"t":24368}],[{"dx":359,"dy":226,"t":25389},{"dx":359,"dy":226,"t":25465},{"dx":359,"dy":226,"t":25542},{"dx":359,"dy":226,"t":25620},{"dx":359,"dy":226,"t":25691},{"dx":359,"dy":226,"t":25771},{"dx":359,"dy":226,"t":25848},{"dx":359,"dy":226,"t":25920},{"dx":359,"dy":226,"t":25998},{"dx":359,"dy":226,"t":26068},{"dx":359,"dy":226,"t":26143},{"dx":359,"dy":226,"t":26223},{"dx":359,"dy":226,"t":26297},{"dx":359,"dy":226,"t":26379},{"dx":359,"dy":226,"t":26453},{"dx":359,"dy":226,"t":26527},{"dx":359,"dy":226,"t":26609},{"dx":359,"dy":226,"t":26691},{"dx":359,"dy":226,"t":26762},{"dx":359,"dy":226,"t":26843},{"dx":359,"dy":226,"t":26919},{"dx":359,"dy":226,"t":26994},{"dx":359,"dy":226,"t":27069},{"dx":359,"dy":226,"t":27154},{"dx":359,"dy":226,"t":27231},{"dx":359,"dy":226,"t":27308},{"dx":359,"dy":226,"t":27387}],[{"dx":-505,"dy":316,"t":28394},{"dx":-505,"dy":316,"t":28472},{"dx":-505,"dy":316,"t":28562},{"dx":-505,"dy":316,"t":28637},{"dx":-505,"dy":316,"t":28709},{"dx":-505,"dy":316,"t":28790},{"dx":-505,"dy":316,"t":28864},{"dx":-505,"dy":316,"t":28936},{"dx":-505,"dy":316,"t":29020},{"dx":-505,"dy":316,"t":29094},{"dx":-505,"dy":316,"t":29165},{"dx":-505,"dy":316,"t":29243},{"dx":-505,"dy":316,"t":29318},{"dx":-505,"dy":316,"t":29397},{"dx":-505,"dy":316,"t":29483},{"dx":-505,"dy":316,"t":29556},{"dx":-505,"dy":316,"t":29638},{"dx":-505,"dy":316,"t":29715},{"dx":-505,"dy":316,"t":29794},{"dx":-505,"dy":316,"t":29873},{"dx":-505,"dy":316,"t":29954},{"dx":-505,"dy":316,"t":30034},{"dx":-505,"dy":316,"t":30107},{"dx":-505,"dy":316,"t":30184},{"dx":-505,"dy":316,"t":30266},{"dx":-505,"dy":316,"t":30344},{"dx":-505,"dy":316,"t":30420}],[{"dx":503,"dy":-314,"t":31436},{"dx":503,"dy":-314,"t":31515},{"dx":503,"dy":-314,"t":31599},{"dx":503,"dy":-314,"t":31672},{"dx":503,"dy":-314,"t":31752},{"dx":503,"dy":-314,"t":31830},{"dx":503,"dy":-314,"t":31902},{"dx":503,"dy":-314,"t":31978},{"dx":503,"dy":-314,"t":32062},{"dx":503,"dy":-314,"t":32136},{"dx":503,"dy":-314,"t":32215},{"dx":503,"dy":-314,"t":32295},{"dx":503,"dy":-314,"t":32367},{"dx":503,"dy":-314,"t":32450},{"dx":503,"dy":-314,"t":32521},{"dx":503,"dy":-314,"t":32595},{"dx":503,"dy":-314,"t":32677},{"dx":503,"dy":-314,"t":32761},{"dx":503,"dy":-314,"t":32833},{"dx":503,"dy":-314,"t":32914},{"dx":503,"dy":-314,"t":32994},{"dx":503,"dy":-314,"t":33069},{"dx":503,"dy":-314,"t":33141},{"dx":503,"dy":-314,"t":33213},{"dx":503,"dy":-314,"t":33298},{"dx":503,"dy":-314,"t":33379},{"dx":503,"dy":-314,"t":33459}],[{"dx":-181,"dy":113.5,"t":34475},{"dx":-181,"dy":113.5,"t":34551},{"dx":-181,"dy":113.5,"t":34634},{"dx":-181,"dy":113.5,"t":34712},{"dx":-181,"dy":113.5,"t":34785},{"dx":-181,"dy":113.5,"t":34864},{"dx":-181,"dy":113.5,"t":34936},{"dx":-181,"dy":113.5,"t":35012},{"dx":-181,"dy":113.5,"t":35099},{"dx":-181,"dy":113.5,"t":35172},{"dx":-181,"dy":113.5,"t":35245},{"dx":-181,"dy":113.5,"t":35335},{"dx":-181,"dy":113.5,"t":35416},{"dx":-181,"dy":113.5,"t":35511},{"dx":-181,"dy":113.5,"t":35588},{"dx":-181,"dy":113.5,"t":35664},{"dx":-181,"dy":113.5,"t":35738},{"dx":-181,"dy":113.5,"t":35810},{"dx":-181,"dy":113.5,"t":35889},{"dx":-181,"dy":113.5,"t":35968},{"dx":-181,"dy":113.5,"t":36045},{"dx":-181,"dy":113.5,"t":36127},{"dx":-181,"dy":113.5,"t":36201},{"dx":-181,"dy":113.5,"t":36276},{"dx":-181,"dy":113.5,"t":36360},{"dx":-181,"dy":113.5,"t":36434},{"dx":-181,"dy":113.5,"t":36506}],[{"dx":-505,"dy":-314,"t":37514},{"dx":-505,"dy":-314,"t":37593},{"dx":-505,"dy":-314,"t":37675},{"dx":-505,"dy":-314,"t":37748},{"dx":-505,"dy":-314,"t":37823},{"dx":-505,"dy":-314,"t":37904},{"dx":-505,"dy":-314,"t":37982},{"dx":-505,"dy":-314,"t":38054},{"dx":-505,"dy":-314,"t":38133},{"dx":-505,"dy":-314,"t":38205},{"dx":-505,"dy":-314,"t":38278},{"dx":-505,"dy":-314,"t":38362},{"dx":-505,"dy":-314,"t":38433},{"dx":-505,"dy":-314,"t":38508},{"dx":-505,"dy":-314,"t":38590},{"dx":-505,"dy":-314,"t":38667},{"dx":-505,"dy":-314,"t":38739},{"dx":-505,"dy":-314,"t":38824},{"dx":-505,"dy":-314,"t":38900},{"dx":-505,"dy":-314,"t":38977},{"dx":-505,"dy":-314,"t":39058},{"dx":-505,"dy":-314,"t":39131},{"dx":-505,"dy":-314,"t":39210},{"dx":-505,"dy":-314,"t":39284},{"dx":-505,"dy":-314,"t":39364},{"dx":-505,"dy":-314,"t":39452}]],"percent_in_roi":[0,0,100,0,0,0,0,0,0,0,0,0,0],"average_offset":[{"x":179,"y":113.38461538461539,"r":0.1730769230769198},{"x":-181,"y":-111.5,"r":0},{"x":-1,"y":1,"r":0},{"x":359,"y":-224,"r":0},{"x":179,"y":-111.5,"r":0},{"x":503,"y":316,"r":0},{"x":-361,"y":-224,"r":0},{"x":-361,"y":226,"r":0},{"x":359,"y":226,"r":0},{"x":-505,"y":316,"r":0},{"x":503,"y":-314,"r":0},{"x":-181,"y":113.5,"r":0},{"x":-505,"y":-314,"r":0}],"samples_per_sec":"12.46","clicks":25,"pattern":"cond","trial_type":"webgazer-validate","trial_index":19,"time_elapsed":257729,"internal_node_id":"0.0-10.0-3.1","validation_points":[[37.5,37.5],[62.5,62.5],[50,50],[25,75],[37.5,62.5],[15,15],[75,75],[75,25],[25,25],[85,15],[15,85],[62.5,37.5],[85,85]],"user_agent":"Mozilla/5.0 (Macintosh; Intel Mac OS X 10_15_6) AppleWebKit/605.1.15 (KHTML, like Gecko) Version/14.0.3 Safari/605.1.15","screen_width_px":1440,"screen_height_px":900},{"rt":2587.999999999971,"stimulus":"\n      <p>Round complete.</p>\n      <p>You can move a little bit, but please try to return you head to the same general location before continuing.</p>\n    ","response":0,"trial_type":"html-button-response","trial_index":20,"time_elapsed":260319,"internal_node_id":"0.0-10.0-4.1","user_agent":"Mozilla/5.0 (Macintosh; Intel Mac OS X 10_15_6) AppleWebKit/605.1.15 (KHTML, like Gecko) Version/14.0.3 Safari/605.1.15","screen_width_px":1440,"screen_height_px":900},{"trial_type":"webgazer-init-camera","trial_index":21,"time_elapsed":262459,"internal_node_id":"0.0-10.0-5.1","user_agent":"Mozilla/5.0 (Macintosh; Intel Mac OS X 10_15_6) AppleWebKit/605.1.15 (KHTML, like Gecko) Version/14.0.3 Safari/605.1.15","screen_width_px":1440,"screen_height_px":900},{"rt":1621,"stimulus":"\n      <p>Calibration phase next.</p>\n      <p>Click on the dots.</p>\n    ","response":0,"trial_type":"html-button-response","trial_index":22,"time_elapsed":264083,"internal_node_id":"0.0-10.0-0.2","user_agent":"Mozilla/5.0 (Macintosh; Intel Mac OS X 10_15_6) AppleWebKit/605.1.15 (KHTML, like Gecko) Version/14.0.3 Safari/605.1.15","screen_width_px":1440,"screen_height_px":900},{"trial_type":"webgazer-calibrate","trial_index":23,"time_elapsed":272569,"internal_node_id":"0.0-10.0-1.2","user_agent":"Mozilla/5.0 (Macintosh; Intel Mac OS X 10_15_6) AppleWebKit/605.1.15 (KHTML, like Gecko) Version/14.0.3 Safari/605.1.15","screen_width_px":1440,"screen_height_px":900},{"rt":1651,"stimulus":"\n      <p>Validation phase next.</p>\n      <p>Look at the dots.</p>\n    ","response":0,"trial_type":"html-button-response","trial_index":24,"time_elapsed":274221,"internal_node_id":"0.0-10.0-2.2","user_agent":"Mozilla/5.0 (Macintosh; Intel Mac OS X 10_15_6) AppleWebKit/605.1.15 (KHTML, like Gecko) Version/14.0.3 Safari/605.1.15","screen_width_px":1440,"screen_height_px":900},{"raw_gaze":[[{"dx":-505,"dy":312,"t":1063},{"dx":-506,"dy":313,"t":1140},{"dx":-507,"dy":313,"t":1214},{"dx":-507,"dy":313,"t":1292},{"dx":-506,"dy":313,"t":1375},{"dx":-506,"dy":313,"t":1448},{"dx":-506,"dy":313,"t":1522},{"dx":-505,"dy":313,"t":1600},{"dx":-505,"dy":313,"t":1671},{"dx":-505,"dy":313,"t":1746},{"dx":-505,"dy":313,"t":1822},{"dx":-505,"dy":313,"t":1898},{"dx":-505,"dy":313,"t":1974},{"dx":-505,"dy":313,"t":2047},{"dx":-505,"dy":313,"t":2123},{"dx":-505,"dy":313,"t":2199},{"dx":-505,"dy":313,"t":2272},{"dx":-505,"dy":313,"t":2345},{"dx":-505,"dy":313,"t":2418},{"dx":-505,"dy":313,"t":2493},{"dx":-505,"dy":313,"t":2576},{"dx":-505,"dy":313,"t":2649},{"dx":-505,"dy":313,"t":2722},{"dx":-505,"dy":313,"t":2800},{"dx":-505,"dy":313,"t":2873},{"dx":-505,"dy":313,"t":2950},{"dx":-505,"dy":313,"t":3030},{"dx":-505,"dy":313,"t":3102}],[{"dx":-181,"dy":110.5,"t":4135},{"dx":-181,"dy":110.5,"t":4213},{"dx":-181,"dy":110.5,"t":4285},{"dx":-181,"dy":110.5,"t":4360},{"dx":-181,"dy":110.5,"t":4435},{"dx":-181,"dy":110.5,"t":4506},{"dx":-181,"dy":110.5,"t":4582},{"dx":-181,"dy":110.5,"t":4660},{"dx":-181,"dy":110.5,"t":4734},{"dx":-181,"dy":110.5,"t":4810},{"dx":-181,"dy":110.5,"t":4890},{"dx":-181,"dy":110.5,"t":4969},{"dx":-181,"dy":110.5,"t":5046},{"dx":-181,"dy":110.5,"t":5119},{"dx":-181,"dy":110.5,"t":5193},{"dx":-181,"dy":110.5,"t":5268},{"dx":-181,"dy":110.5,"t":5343},{"dx":-181,"dy":110.5,"t":5421},{"dx":-181,"dy":110.5,"t":5499},{"dx":-181,"dy":110.5,"t":5573},{"dx":-181,"dy":110.5,"t":5650},{"dx":-181,"dy":110.5,"t":5719},{"dx":-181,"dy":110.5,"t":5793},{"dx":-181,"dy":110.5,"t":5871},{"dx":-181,"dy":110.5,"t":5943},{"dx":-181,"dy":110.5,"t":6020},{"dx":-181,"dy":110.5,"t":6098},{"dx":-181,"dy":110.5,"t":6171}],[{"dx":179,"dy":110.5,"t":7193},{"dx":179,"dy":110.5,"t":7271},{"dx":179,"dy":110.5,"t":7354},{"dx":179,"dy":110.5,"t":7429},{"dx":179,"dy":110.5,"t":7503},{"dx":179,"dy":110.5,"t":7582},{"dx":179,"dy":110.5,"t":7661},{"dx":179,"dy":110.5,"t":7736},{"dx":179,"dy":110.5,"t":7813},{"dx":179,"dy":110.5,"t":7885},{"dx":179,"dy":110.5,"t":7965},{"dx":179,"dy":110.5,"t":8037},{"dx":179,"dy":110.5,"t":8106},{"dx":179,"dy":110.5,"t":8186},{"dx":179,"dy":110.5,"t":8257},{"dx":179,"dy":110.5,"t":8331},{"dx":179,"dy":110.5,"t":8409},{"dx":179,"dy":110.5,"t":8481},{"dx":179,"dy":110.5,"t":8549},{"dx":179,"dy":110.5,"t":8624},{"dx":179,"dy":110.5,"t":8699},{"dx":179,"dy":110.5,"t":8781},{"dx":179,"dy":110.5,"t":8853},{"dx":179,"dy":110.5,"t":8934},{"dx":179,"dy":110.5,"t":9009},{"dx":179,"dy":110.5,"t":9080},{"dx":179,"dy":110.5,"t":9154},{"dx":179,"dy":110.5,"t":9237}],[{"dx":-361,"dy":223,"t":10258},{"dx":-361,"dy":223,"t":10332},{"dx":-361,"dy":223,"t":10409},{"dx":-361,"dy":223,"t":10487},{"dx":-361,"dy":223,"t":10562},{"dx":-361,"dy":223,"t":10646},{"dx":-361,"dy":223,"t":10723},{"dx":-361,"dy":223,"t":10794},{"dx":-361,"dy":223,"t":10877},{"dx":-361,"dy":223,"t":10954},{"dx":-361,"dy":223,"t":11033},{"dx":-361,"dy":223,"t":11110},{"dx":-361,"dy":223,"t":11182},{"dx":-361,"dy":223,"t":11257},{"dx":-361,"dy":223,"t":11343},{"dx":-361,"dy":223,"t":11419},{"dx":-361,"dy":223,"t":11493},{"dx":-361,"dy":223,"t":11578},{"dx":-361,"dy":223,"t":11651},{"dx":-361,"dy":223,"t":11723},{"dx":-361,"dy":223,"t":11802},{"dx":-361,"dy":223,"t":11876},{"dx":-361,"dy":223,"t":11946},{"dx":-361,"dy":223,"t":12027},{"dx":-361,"dy":223,"t":12101},{"dx":-361,"dy":223,"t":12178},{"dx":-361,"dy":223,"t":12250}],[{"dx":-361,"dy":-227,"t":13281},{"dx":-361,"dy":-227,"t":13356},{"dx":-361,"dy":-227,"t":13434},{"dx":-361,"dy":-227,"t":13517},{"dx":-361,"dy":-227,"t":13589},{"dx":-361,"dy":-227,"t":13670},{"dx":-361,"dy":-227,"t":13745},{"dx":-361,"dy":-227,"t":13815},{"dx":-361,"dy":-227,"t":13891},{"dx":-361,"dy":-227,"t":13981},{"dx":-361,"dy":-227,"t":14065},{"dx":-361,"dy":-227,"t":14145},{"dx":-361,"dy":-227,"t":14274},{"dx":-361,"dy":-227,"t":14348},{"dx":-361,"dy":-227,"t":14429},{"dx":-361,"dy":-227,"t":14500},{"dx":-361,"dy":-227,"t":14573},{"dx":-361,"dy":-227,"t":14673},{"dx":-361,"dy":-227,"t":14751},{"dx":-361,"dy":-227,"t":14830},{"dx":-361,"dy":-227,"t":14908},{"dx":-361,"dy":-227,"t":14982},{"dx":-361,"dy":-227,"t":15062},{"dx":-361,"dy":-227,"t":15137},{"dx":-361,"dy":-227,"t":15213},{"dx":-361,"dy":-227,"t":15287}],[{"dx":-1,"dy":-2,"t":16324},{"dx":-1,"dy":-2,"t":16398},{"dx":-1,"dy":-2,"t":16474},{"dx":-1,"dy":-2,"t":16554},{"dx":-1,"dy":-2,"t":16629},{"dx":-1,"dy":-2,"t":16715},{"dx":-1,"dy":-2,"t":16789},{"dx":-1,"dy":-2,"t":16871},{"dx":-1,"dy":-2,"t":16947},{"dx":-1,"dy":-2,"t":17028},{"dx":-1,"dy":-2,"t":17114},{"dx":-1,"dy":-2,"t":17198},{"dx":-1,"dy":-2,"t":17272},{"dx":-1,"dy":-2,"t":17350},{"dx":-1,"dy":-2,"t":17423},{"dx":-1,"dy":-2,"t":17497},{"dx":-1,"dy":-2,"t":17581},{"dx":-1,"dy":-2,"t":17654},{"dx":-1,"dy":-2,"t":17732},{"dx":-1,"dy":-2,"t":17819},{"dx":-1,"dy":-2,"t":17889},{"dx":-1,"dy":-2,"t":17967},{"dx":-1,"dy":-2,"t":18042},{"dx":-1,"dy":-2,"t":18113},{"dx":-1,"dy":-2,"t":18192},{"dx":-1,"dy":-2,"t":18264},{"dx":-1,"dy":-2,"t":18337}],[{"dx":503,"dy":313,"t":19369},{"dx":503,"dy":313,"t":19442},{"dx":503,"dy":313,"t":19518},{"dx":503,"dy":313,"t":19594},{"dx":503,"dy":313,"t":19665},{"dx":503,"dy":313,"t":19741},{"dx":503,"dy":313,"t":19823},{"dx":503,"dy":313,"t":19894},{"dx":503,"dy":313,"t":19968},{"dx":503,"dy":313,"t":20047},{"dx":503,"dy":313,"t":20120},{"dx":503,"dy":313,"t":20203},{"dx":503,"dy":313,"t":20277},{"dx":503,"dy":313,"t":20349},{"dx":503,"dy":313,"t":20426},{"dx":503,"dy":313,"t":20503},{"dx":503,"dy":313,"t":20571},{"dx":503,"dy":313,"t":20651},{"dx":503,"dy":313,"t":20721},{"dx":503,"dy":313,"t":20790},{"dx":503,"dy":313,"t":20864},{"dx":503,"dy":313,"t":20945},{"dx":503,"dy":313,"t":21023},{"dx":503,"dy":313,"t":21096},{"dx":503,"dy":313,"t":21168},{"dx":503,"dy":313,"t":21253},{"dx":503,"dy":313,"t":21323},{"dx":503,"dy":313,"t":21392}],[{"dx":359,"dy":-227,"t":22397},{"dx":359,"dy":-227,"t":22468},{"dx":359,"dy":-227,"t":22552},{"dx":359,"dy":-227,"t":22622},{"dx":359,"dy":-227,"t":22695},{"dx":359,"dy":-227,"t":22775},{"dx":359,"dy":-227,"t":22853},{"dx":359,"dy":-227,"t":22921},{"dx":359,"dy":-227,"t":22999},{"dx":359,"dy":-227,"t":23071},{"dx":359,"dy":-227,"t":23151},{"dx":359,"dy":-227,"t":23220},{"dx":359,"dy":-227,"t":23292},{"dx":359,"dy":-227,"t":23368},{"dx":359,"dy":-227,"t":23439},{"dx":359,"dy":-227,"t":23513},{"dx":359,"dy":-227,"t":23587},{"dx":359,"dy":-227,"t":23659},{"dx":359,"dy":-227,"t":23731},{"dx":359,"dy":-227,"t":23807},{"dx":359,"dy":-227,"t":23890},{"dx":359,"dy":-227,"t":24006},{"dx":359,"dy":-227,"t":24113},{"dx":359,"dy":-227,"t":24183},{"dx":359,"dy":-227,"t":24257},{"dx":359,"dy":-227,"t":24334},{"dx":359,"dy":-227,"t":24409}],[{"dx":-505,"dy":-317,"t":25433},{"dx":-505,"dy":-317,"t":25505},{"dx":-505,"dy":-317,"t":25580},{"dx":-505,"dy":-317,"t":25650},{"dx":-505,"dy":-317,"t":25728},{"dx":-505,"dy":-317,"t":25802},{"dx":-505,"dy":-317,"t":25873},{"dx":-505,"dy":-317,"t":25951},{"dx":-505,"dy":-317,"t":26024},{"dx":-505,"dy":-317,"t":26098},{"dx":-505,"dy":-317,"t":26183},{"dx":-505,"dy":-317,"t":26254},{"dx":-505,"dy":-317,"t":26326},{"dx":-505,"dy":-317,"t":26403},{"dx":-505,"dy":-317,"t":26479},{"dx":-505,"dy":-317,"t":26557},{"dx":-505,"dy":-317,"t":26629},{"dx":-505,"dy":-317,"t":26702},{"dx":-505,"dy":-317,"t":26790},{"dx":-505,"dy":-317,"t":26862},{"dx":-505,"dy":-317,"t":26933},{"dx":-505,"dy":-317,"t":27009},{"dx":-505,"dy":-317,"t":27091},{"dx":-505,"dy":-317,"t":27170},{"dx":-505,"dy":-317,"t":27259},{"dx":-505,"dy":-317,"t":27337},{"dx":-505,"dy":-317,"t":27418},{"dx":-505,"dy":-317,"t":27495}],[{"dx":179,"dy":-114.5,"t":28516},{"dx":179,"dy":-114.5,"t":28595},{"dx":179,"dy":-114.5,"t":28668},{"dx":179,"dy":-114.5,"t":28745},{"dx":179,"dy":-114.5,"t":28818},{"dx":179,"dy":-114.5,"t":28895},{"dx":179,"dy":-114.5,"t":28967},{"dx":179,"dy":-114.5,"t":29048},{"dx":179,"dy":-114.5,"t":29126},{"dx":179,"dy":-114.5,"t":29199},{"dx":179,"dy":-114.5,"t":29271},{"dx":179,"dy":-114.5,"t":29346},{"dx":179,"dy":-114.5,"t":29429},{"dx":179,"dy":-114.5,"t":29504},{"dx":179,"dy":-114.5,"t":29583},{"dx":179,"dy":-114.5,"t":29662},{"dx":179,"dy":-114.5,"t":29737},{"dx":179,"dy":-114.5,"t":29805},{"dx":179,"dy":-114.5,"t":29881},{"dx":179,"dy":-114.5,"t":29958},{"dx":179,"dy":-114.5,"t":30034},{"dx":179,"dy":-114.5,"t":30109},{"dx":179,"dy":-114.5,"t":30192},{"dx":179,"dy":-114.5,"t":30263},{"dx":179,"dy":-114.5,"t":30336},{"dx":179,"dy":-114.5,"t":30423},{"dx":179,"dy":-114.5,"t":30500}],[{"dx":-181,"dy":-114.5,"t":31516},{"dx":-181,"dy":-114.5,"t":31595},{"dx":-181,"dy":-114.5,"t":31667},{"dx":-181,"dy":-114.5,"t":31740},{"dx":-181,"dy":-114.5,"t":31813},{"dx":-181,"dy":-114.5,"t":31890},{"dx":-181,"dy":-114.5,"t":31962},{"dx":-181,"dy":-114.5,"t":32046},{"dx":-181,"dy":-114.5,"t":32120},{"dx":-181,"dy":-114.5,"t":32195},{"dx":-181,"dy":-114.5,"t":32276},{"dx":-181,"dy":-114.5,"t":32350},{"dx":-181,"dy":-114.5,"t":32435},{"dx":-181,"dy":-114.5,"t":32510},{"dx":-181,"dy":-114.5,"t":32587},{"dx":-181,"dy":-114.5,"t":32667},{"dx":-181,"dy":-114.5,"t":32736},{"dx":-181,"dy":-114.5,"t":32816},{"dx":-181,"dy":-114.5,"t":32902},{"dx":-181,"dy":-114.5,"t":32975},{"dx":-181,"dy":-114.5,"t":33055},{"dx":-181,"dy":-114.5,"t":33132},{"dx":-181,"dy":-114.5,"t":33204},{"dx":-181,"dy":-114.5,"t":33278},{"dx":-181,"dy":-114.5,"t":33354},{"dx":-181,"dy":-114.5,"t":33429},{"dx":-181,"dy":-114.5,"t":33499}],[{"dx":359,"dy":223,"t":34522},{"dx":359,"dy":223,"t":34599},{"dx":359,"dy":223,"t":34670},{"dx":359,"dy":223,"t":34742},{"dx":359,"dy":223,"t":34826},{"dx":359,"dy":223,"t":34899},{"dx":359,"dy":223,"t":34980},{"dx":359,"dy":223,"t":35066},{"dx":359,"dy":223,"t":35139},{"dx":359,"dy":223,"t":35215},{"dx":359,"dy":223,"t":35289},{"dx":359,"dy":223,"t":35361},{"dx":359,"dy":223,"t":35436},{"dx":359,"dy":223,"t":35510},{"dx":359,"dy":223,"t":35582},{"dx":359,"dy":223,"t":35659},{"dx":359,"dy":223,"t":35734},{"dx":359,"dy":223,"t":35806},{"dx":359,"dy":223,"t":35879},{"dx":359,"dy":223,"t":35953},{"dx":359,"dy":223,"t":36033},{"dx":359,"dy":223,"t":36105},{"dx":359,"dy":223,"t":36177},{"dx":359,"dy":223,"t":36255},{"dx":359,"dy":223,"t":36332},{"dx":359,"dy":223,"t":36404},{"dx":359,"dy":223,"t":36483},{"dx":359,"dy":223,"t":36555}],[{"dx":503,"dy":-317,"t":37578},{"dx":503,"dy":-317,"t":37656},{"dx":503,"dy":-317,"t":37729},{"dx":503,"dy":-317,"t":37812},{"dx":503,"dy":-317,"t":37891},{"dx":503,"dy":-317,"t":37967},{"dx":503,"dy":-317,"t":38047},{"dx":503,"dy":-317,"t":38120},{"dx":503,"dy":-317,"t":38191},{"dx":503,"dy":-317,"t":38268},{"dx":503,"dy":-317,"t":38338},{"dx":503,"dy":-317,"t":38408},{"dx":503,"dy":-317,"t":38487},{"dx":503,"dy":-317,"t":38565},{"dx":503,"dy":-317,"t":38639},{"dx":503,"dy":-317,"t":38710},{"dx":503,"dy":-317,"t":38781},{"dx":503,"dy":-317,"t":38867},{"dx":503,"dy":-317,"t":38937},{"dx":503,"dy":-317,"t":39008},{"dx":503,"dy":-317,"t":39088},{"dx":503,"dy":-317,"t":39168},{"dx":503,"dy":-317,"t":39243},{"dx":503,"dy":-317,"t":39318},{"dx":503,"dy":-317,"t":39390},{"dx":503,"dy":-317,"t":39468},{"dx":503,"dy":-317,"t":39548}]],"percent_in_roi":[0,0,0,0,0,100,0,0,0,0,0,0,0],"average_offset":[{"x":-505.2857142857143,"y":312.9642857142857,"r":0.4319066650874087},{"x":-181,"y":110.5,"r":0},{"x":179,"y":110.5,"r":0},{"x":-361,"y":223,"r":0},{"x":-361,"y":-227,"r":0},{"x":-1,"y":-2,"r":0},{"x":503,"y":313,"r":0},{"x":359,"y":-227,"r":0},{"x":-505,"y":-317,"r":0},{"x":179,"y":-114.5,"r":0},{"x":-181,"y":-114.5,"r":0},{"x":359,"y":223,"r":0},{"x":503,"y":-317,"r":0}],"samples_per_sec":"13.09","clicks":5,"pattern":"spread","trial_type":"webgazer-validate","trial_index":25,"time_elapsed":314814,"internal_node_id":"0.0-10.0-3.2","validation_points":[[85,15],[62.5,37.5],[37.5,37.5],[75,25],[75,75],[50,50],[15,15],[25,75],[85,85],[37.5,62.5],[62.5,62.5],[25,25],[15,85]],"user_agent":"Mozilla/5.0 (Macintosh; Intel Mac OS X 10_15_6) AppleWebKit/605.1.15 (KHTML, like Gecko) Version/14.0.3 Safari/605.1.15","screen_width_px":1440,"screen_height_px":900},{"rt":2204,"stimulus":"\n      <p>Round complete.</p>\n      <p>You can move a little bit, but please try to return you head to the same general location before continuing.</p>\n    ","response":0,"trial_type":"html-button-response","trial_index":26,"time_elapsed":317021,"internal_node_id":"0.0-10.0-4.2","user_agent":"Mozilla/5.0 (Macintosh; Intel Mac OS X 10_15_6) AppleWebKit/605.1.15 (KHTML, like Gecko) Version/14.0.3 Safari/605.1.15","screen_width_px":1440,"screen_height_px":900},{"trial_type":"webgazer-init-camera","trial_index":27,"time_elapsed":320403,"internal_node_id":"0.0-10.0-5.2","user_agent":"Mozilla/5.0 (Macintosh; Intel Mac OS X 10_15_6) AppleWebKit/605.1.15 (KHTML, like Gecko) Version/14.0.3 Safari/605.1.15","screen_width_px":1440,"screen_height_px":900},{"rt":2173.999999999942,"stimulus":"\n      <p>Calibration phase next.</p>\n      <p>Click on the dots.</p>\n    ","response":0,"trial_type":"html-button-response","trial_index":28,"time_elapsed":322580,"internal_node_id":"0.0-10.0-0.3","user_agent":"Mozilla/5.0 (Macintosh; Intel Mac OS X 10_15_6) AppleWebKit/605.1.15 (KHTML, like Gecko) Version/14.0.3 Safari/605.1.15","screen_width_px":1440,"screen_height_px":900},{"trial_type":"webgazer-calibrate","trial_index":29,"time_elapsed":345300,"internal_node_id":"0.0-10.0-1.3","user_agent":"Mozilla/5.0 (Macintosh; Intel Mac OS X 10_15_6) AppleWebKit/605.1.15 (KHTML, like Gecko) Version/14.0.3 Safari/605.1.15","screen_width_px":1440,"screen_height_px":900},{"rt":1344.0000000000582,"stimulus":"\n      <p>Validation phase next.</p>\n      <p>Look at the dots.</p>\n    ","response":0,"trial_type":"html-button-response","trial_index":30,"time_elapsed":346647,"internal_node_id":"0.0-10.0-2.3","user_agent":"Mozilla/5.0 (Macintosh; Intel Mac OS X 10_15_6) AppleWebKit/605.1.15 (KHTML, like Gecko) Version/14.0.3 Safari/605.1.15","screen_width_px":1440,"screen_height_px":900},{"raw_gaze":[[{"dx":-506,"dy":-315,"t":1064},{"dx":-505,"dy":-316,"t":1143},{"dx":-504,"dy":-316,"t":1217},{"dx":-504,"dy":-316,"t":1288},{"dx":-504,"dy":-316,"t":1375},{"dx":-504,"dy":-316,"t":1447},{"dx":-504,"dy":-316,"t":1522},{"dx":-505,"dy":-316,"t":1606},{"dx":-505,"dy":-316,"t":1681},{"dx":-505,"dy":-316,"t":1759},{"dx":-505,"dy":-316,"t":1837},{"dx":-505,"dy":-316,"t":1911},{"dx":-505,"dy":-316,"t":1985},{"dx":-505,"dy":-316,"t":2063},{"dx":-505,"dy":-316,"t":2135},{"dx":-505,"dy":-316,"t":2209},{"dx":-505,"dy":-316,"t":2286},{"dx":-505,"dy":-316,"t":2361},{"dx":-505,"dy":-316,"t":2437},{"dx":-505,"dy":-316,"t":2515},{"dx":-505,"dy":-316,"t":2589},{"dx":-505,"dy":-316,"t":2681},{"dx":-505,"dy":-316,"t":2755},{"dx":-505,"dy":-316,"t":2830},{"dx":-505,"dy":-316,"t":2913},{"dx":-505,"dy":-316,"t":2986},{"dx":-505,"dy":-316,"t":3061}],[{"dx":179,"dy":-113.5,"t":4086},{"dx":179,"dy":-113.5,"t":4160},{"dx":179,"dy":-113.5,"t":4247},{"dx":179,"dy":-113.5,"t":4320},{"dx":179,"dy":-113.5,"t":4399},{"dx":179,"dy":-113.5,"t":4478},{"dx":179,"dy":-113.5,"t":4553},{"dx":179,"dy":-113.5,"t":4628},{"dx":179,"dy":-113.5,"t":4711},{"dx":179,"dy":-113.5,"t":4786},{"dx":179,"dy":-113.5,"t":4857},{"dx":179,"dy":-113.5,"t":4934},{"dx":179,"dy":-113.5,"t":5007},{"dx":179,"dy":-113.5,"t":5084},{"dx":179,"dy":-113.5,"t":5159},{"dx":179,"dy":-113.5,"t":5232},{"dx":179,"dy":-113.5,"t":5312},{"dx":179,"dy":-113.5,"t":5386},{"dx":179,"dy":-113.5,"t":5461},{"dx":179,"dy":-113.5,"t":5545},{"dx":179,"dy":-113.5,"t":5622},{"dx":179,"dy":-113.5,"t":5694},{"dx":179,"dy":-113.5,"t":5776},{"dx":179,"dy":-113.5,"t":5847},{"dx":179,"dy":-113.5,"t":5919},{"dx":179,"dy":-113.5,"t":5997},{"dx":179,"dy":-113.5,"t":6074}],[{"dx":-361,"dy":-226,"t":7079},{"dx":-361,"dy":-226,"t":7166},{"dx":-361,"dy":-226,"t":7246},{"dx":-361,"dy":-226,"t":7324},{"dx":-361,"dy":-226,"t":7397},{"dx":-361,"dy":-226,"t":7468},{"dx":-361,"dy":-226,"t":7555},{"dx":-361,"dy":-226,"t":7643},{"dx":-361,"dy":-226,"t":7716},{"dx":-361,"dy":-226,"t":7795},{"dx":-361,"dy":-226,"t":7870},{"dx":-361,"dy":-226,"t":7945},{"dx":-361,"dy":-226,"t":8028},{"dx":-361,"dy":-226,"t":8103},{"dx":-361,"dy":-226,"t":8183},{"dx":-361,"dy":-226,"t":8265},{"dx":-361,"dy":-226,"t":8343},{"dx":-361,"dy":-226,"t":8416},{"dx":-361,"dy":-226,"t":8495},{"dx":-361,"dy":-226,"t":8570},{"dx":-361,"dy":-226,"t":8655},{"dx":-361,"dy":-226,"t":8736},{"dx":-361,"dy":-226,"t":8816},{"dx":-361,"dy":-226,"t":8898},{"dx":-361,"dy":-226,"t":8974},{"dx":-361,"dy":-226,"t":9050},{"dx":-361,"dy":-226,"t":9135}],[{"dx":503,"dy":314,"t":10152},{"dx":503,"dy":314,"t":10229},{"dx":503,"dy":314,"t":10301},{"dx":503,"dy":314,"t":10389},{"dx":503,"dy":314,"t":10462},{"dx":503,"dy":314,"t":10542},{"dx":503,"dy":314,"t":10628},{"dx":503,"dy":314,"t":10702},{"dx":503,"dy":314,"t":10790},{"dx":503,"dy":314,"t":10868},{"dx":503,"dy":314,"t":10945},{"dx":503,"dy":314,"t":11025},{"dx":503,"dy":314,"t":11100},{"dx":503,"dy":314,"t":11177},{"dx":503,"dy":314,"t":11258},{"dx":503,"dy":314,"t":11332},{"dx":503,"dy":314,"t":11409},{"dx":503,"dy":314,"t":11509},{"dx":503,"dy":314,"t":11631},{"dx":503,"dy":314,"t":11718},{"dx":503,"dy":314,"t":11792},{"dx":503,"dy":314,"t":11866},{"dx":503,"dy":314,"t":11945},{"dx":503,"dy":314,"t":12019},{"dx":503,"dy":314,"t":12094},{"dx":503,"dy":314,"t":12170}],[{"dx":-361,"dy":224,"t":13178},{"dx":-361,"dy":224,"t":13260},{"dx":-361,"dy":224,"t":13335},{"dx":-361,"dy":224,"t":13413},{"dx":-361,"dy":224,"t":13492},{"dx":-361,"dy":224,"t":13562},{"dx":-361,"dy":224,"t":13637},{"dx":-361,"dy":224,"t":13717},{"dx":-361,"dy":224,"t":13792},{"dx":-361,"dy":224,"t":13865},{"dx":-361,"dy":224,"t":13946},{"dx":-361,"dy":224,"t":14018},{"dx":-361,"dy":224,"t":14093},{"dx":-361,"dy":224,"t":14177},{"dx":-361,"dy":224,"t":14252},{"dx":-361,"dy":224,"t":14327},{"dx":-361,"dy":224,"t":14405},{"dx":-361,"dy":224,"t":14480},{"dx":-361,"dy":224,"t":14561},{"dx":-361,"dy":224,"t":14641},{"dx":-361,"dy":224,"t":14712},{"dx":-361,"dy":224,"t":14796},{"dx":-361,"dy":224,"t":14876},{"dx":-361,"dy":224,"t":14951},{"dx":-361,"dy":224,"t":15029},{"dx":-361,"dy":224,"t":15102},{"dx":-361,"dy":224,"t":15187}],[{"dx":503,"dy":-316,"t":16195},{"dx":503,"dy":-316,"t":16268},{"dx":503,"dy":-316,"t":16340},{"dx":503,"dy":-316,"t":16423},{"dx":503,"dy":-316,"t":16495},{"dx":503,"dy":-316,"t":16567},{"dx":503,"dy":-316,"t":16653},{"dx":503,"dy":-316,"t":16725},{"dx":503,"dy":-316,"t":16799},{"dx":503,"dy":-316,"t":16880},{"dx":503,"dy":-316,"t":16955},{"dx":503,"dy":-316,"t":17033},{"dx":503,"dy":-316,"t":17114},{"dx":503,"dy":-316,"t":17188},{"dx":503,"dy":-316,"t":17267},{"dx":503,"dy":-316,"t":17340},{"dx":503,"dy":-316,"t":17416},{"dx":503,"dy":-316,"t":17494},{"dx":503,"dy":-316,"t":17565},{"dx":503,"dy":-316,"t":17641},{"dx":503,"dy":-316,"t":17722},{"dx":503,"dy":-316,"t":17797},{"dx":503,"dy":-316,"t":17868},{"dx":503,"dy":-316,"t":17955},{"dx":503,"dy":-316,"t":18028},{"dx":503,"dy":-316,"t":18108},{"dx":503,"dy":-316,"t":18187}],[{"dx":-1,"dy":-1,"t":19200},{"dx":-1,"dy":-1,"t":19284},{"dx":-1,"dy":-1,"t":19355},{"dx":-1,"dy":-1,"t":19433},{"dx":-1,"dy":-1,"t":19505},{"dx":-1,"dy":-1,"t":19582},{"dx":-1,"dy":-1,"t":19666},{"dx":-1,"dy":-1,"t":19737},{"dx":-1,"dy":-1,"t":19811},{"dx":-1,"dy":-1,"t":19898},{"dx":-1,"dy":-1,"t":19969},{"dx":-1,"dy":-1,"t":20040},{"dx":-1,"dy":-1,"t":20121},{"dx":-1,"dy":-1,"t":20193},{"dx":-1,"dy":-1,"t":20267},{"dx":-1,"dy":-1,"t":20341},{"dx":-1,"dy":-1,"t":20415},{"dx":-1,"dy":-1,"t":20494},{"dx":-1,"dy":-1,"t":20572},{"dx":-1,"dy":-1,"t":20650},{"dx":-1,"dy":-1,"t":20728},{"dx":-1,"dy":-1,"t":20807},{"dx":-1,"dy":-1,"t":20882},{"dx":-1,"dy":-1,"t":20962},{"dx":-1,"dy":-1,"t":21038},{"dx":-1,"dy":-1,"t":21118},{"dx":-1,"dy":-1,"t":21197}],[{"dx":-505,"dy":314,"t":22202},{"dx":-505,"dy":314,"t":22275},{"dx":-505,"dy":314,"t":22361},{"dx":-505,"dy":314,"t":22433},{"dx":-505,"dy":314,"t":22506},{"dx":-505,"dy":314,"t":22583},{"dx":-505,"dy":314,"t":22663},{"dx":-505,"dy":314,"t":22737},{"dx":-505,"dy":314,"t":22810},{"dx":-505,"dy":314,"t":22883},{"dx":-505,"dy":314,"t":22966},{"dx":-505,"dy":314,"t":23042},{"dx":-505,"dy":314,"t":23123},{"dx":-505,"dy":314,"t":23202},{"dx":-505,"dy":314,"t":23279},{"dx":-505,"dy":314,"t":23352},{"dx":-505,"dy":314,"t":23431},{"dx":-505,"dy":314,"t":23503},{"dx":-505,"dy":314,"t":23579},{"dx":-505,"dy":314,"t":23660},{"dx":-505,"dy":314,"t":23732},{"dx":-505,"dy":314,"t":23803},{"dx":-505,"dy":314,"t":23879},{"dx":-505,"dy":314,"t":23954},{"dx":-505,"dy":314,"t":24026},{"dx":-505,"dy":314,"t":24105},{"dx":-505,"dy":314,"t":24178},{"dx":-505,"dy":314,"t":24259}],[{"dx":-181,"dy":111.5,"t":25297},{"dx":-181,"dy":111.5,"t":25367},{"dx":-181,"dy":111.5,"t":25438},{"dx":-181,"dy":111.5,"t":25515},{"dx":-181,"dy":111.5,"t":25588},{"dx":-181,"dy":111.5,"t":25666},{"dx":-181,"dy":111.5,"t":25745},{"dx":-181,"dy":111.5,"t":25820},{"dx":-181,"dy":111.5,"t":25902},{"dx":-181,"dy":111.5,"t":25981},{"dx":-181,"dy":111.5,"t":26058},{"dx":-181,"dy":111.5,"t":26130},{"dx":-181,"dy":111.5,"t":26207},{"dx":-181,"dy":111.5,"t":26280},{"dx":-181,"dy":111.5,"t":26355},{"dx":-181,"dy":111.5,"t":26436},{"dx":-181,"dy":111.5,"t":26509},{"dx":-181,"dy":111.5,"t":26585},{"dx":-181,"dy":111.5,"t":26661},{"dx":-181,"dy":111.5,"t":26733},{"dx":-181,"dy":111.5,"t":26808},{"dx":-181,"dy":111.5,"t":26879},{"dx":-181,"dy":111.5,"t":26949},{"dx":-181,"dy":111.5,"t":27025},{"dx":-181,"dy":111.5,"t":27104},{"dx":-181,"dy":111.5,"t":27176},{"dx":-181,"dy":111.5,"t":27250},{"dx":-181,"dy":111.5,"t":27324}],[{"dx":-181,"dy":-113.5,"t":28359},{"dx":-181,"dy":-113.5,"t":28447},{"dx":-181,"dy":-113.5,"t":28526},{"dx":-181,"dy":-113.5,"t":28603},{"dx":-181,"dy":-113.5,"t":28683},{"dx":-181,"dy":-113.5,"t":28756},{"dx":-181,"dy":-113.5,"t":28834},{"dx":-181,"dy":-113.5,"t":28910},{"dx":-181,"dy":-113.5,"t":28984},{"dx":-181,"dy":-113.5,"t":29058},{"dx":-181,"dy":-113.5,"t":29139},{"dx":-181,"dy":-113.5,"t":29211},{"dx":-181,"dy":-113.5,"t":29287},{"dx":-181,"dy":-113.5,"t":29365},{"dx":-181,"dy":-113.5,"t":29436},{"dx":-181,"dy":-113.5,"t":29515},{"dx":-181,"dy":-113.5,"t":29592},{"dx":-181,"dy":-113.5,"t":29669},{"dx":-181,"dy":-113.5,"t":29748},{"dx":-181,"dy":-113.5,"t":29821},{"dx":-181,"dy":-113.5,"t":29899},{"dx":-181,"dy":-113.5,"t":29977},{"dx":-181,"dy":-113.5,"t":30050},{"dx":-181,"dy":-113.5,"t":30125},{"dx":-181,"dy":-113.5,"t":30208},{"dx":-181,"dy":-113.5,"t":30279},{"dx":-181,"dy":-113.5,"t":30358}],[{"dx":359,"dy":-226,"t":31383},{"dx":359,"dy":-226,"t":31458},{"dx":359,"dy":-226,"t":31532},{"dx":359,"dy":-226,"t":31615},{"dx":359,"dy":-226,"t":31690},{"dx":359,"dy":-226,"t":31767},{"dx":359,"dy":-226,"t":31844},{"dx":359,"dy":-226,"t":31918},{"dx":359,"dy":-226,"t":31999},{"dx":359,"dy":-226,"t":32072},{"dx":359,"dy":-226,"t":32147},{"dx":359,"dy":-226,"t":32230},{"dx":359,"dy":-226,"t":32301},{"dx":359,"dy":-226,"t":32374},{"dx":359,"dy":-226,"t":32449},{"dx":359,"dy":-226,"t":32522},{"dx":359,"dy":-226,"t":32612},{"dx":359,"dy":-226,"t":32687},{"dx":359,"dy":-226,"t":32767},{"dx":359,"dy":-226,"t":32855},{"dx":359,"dy":-226,"t":32928},{"dx":359,"dy":-226,"t":33007},{"dx":359,"dy":-226,"t":33084},{"dx":359,"dy":-226,"t":33157},{"dx":359,"dy":-226,"t":33229},{"dx":359,"dy":-226,"t":33308},{"dx":359,"dy":-226,"t":33384}],[{"dx":359,"dy":224,"t":34416},{"dx":359,"dy":224,"t":34491},{"dx":359,"dy":224,"t":34575},{"dx":359,"dy":224,"t":34652},{"dx":359,"dy":224,"t":34726},{"dx":359,"dy":224,"t":34815},{"dx":359,"dy":224,"t":34889},{"dx":359,"dy":224,"t":34961},{"dx":359,"dy":224,"t":35041},{"dx":359,"dy":224,"t":35115},{"dx":359,"dy":224,"t":35190},{"dx":359,"dy":224,"t":35276},{"dx":359,"dy":224,"t":35351},{"dx":359,"dy":224,"t":35430},{"dx":359,"dy":224,"t":35498},{"dx":359,"dy":224,"t":35572},{"dx":359,"dy":224,"t":35658},{"dx":359,"dy":224,"t":35736},{"dx":359,"dy":224,"t":35811},{"dx":359,"dy":224,"t":35888},{"dx":359,"dy":224,"t":35964},{"dx":359,"dy":224,"t":36049},{"dx":359,"dy":224,"t":36124},{"dx":359,"dy":224,"t":36196},{"dx":359,"dy":224,"t":36281},{"dx":359,"dy":224,"t":36353},{"dx":359,"dy":224,"t":36429}],[{"dx":179,"dy":111.5,"t":37446},{"dx":179,"dy":111.5,"t":37525},{"dx":179,"dy":111.5,"t":37603},{"dx":179,"dy":111.5,"t":37678},{"dx":179,"dy":111.5,"t":37758},{"dx":179,"dy":111.5,"t":37834},{"dx":179,"dy":111.5,"t":37910},{"dx":179,"dy":111.5,"t":37994},{"dx":179,"dy":111.5,"t":38077},{"dx":179,"dy":111.5,"t":38154},{"dx":179,"dy":111.5,"t":38230},{"dx":179,"dy":111.5,"t":38309},{"dx":179,"dy":111.5,"t":38388},{"dx":179,"dy":111.5,"t":38463},{"dx":179,"dy":111.5,"t":38549},{"dx":179,"dy":111.5,"t":38634},{"dx":179,"dy":111.5,"t":38707},{"dx":179,"dy":111.5,"t":38780},{"dx":179,"dy":111.5,"t":38868},{"dx":179,"dy":111.5,"t":38939},{"dx":179,"dy":111.5,"t":39013},{"dx":179,"dy":111.5,"t":39094},{"dx":179,"dy":111.5,"t":39168},{"dx":179,"dy":111.5,"t":39243},{"dx":179,"dy":111.5,"t":39322},{"dx":179,"dy":111.5,"t":39395}]],"percent_in_roi":[0,0,0,0,0,0,100,0,0,0,0,0,0],"average_offset":[{"x":-504.85185185185185,"y":-315.962962962963,"r":0.1527076157636145},{"x":179,"y":-113.5,"r":0},{"x":-361,"y":-226,"r":0},{"x":503,"y":314,"r":0},{"x":-361,"y":224,"r":0},{"x":503,"y":-316,"r":0},{"x":-1,"y":-1,"r":0},{"x":-505,"y":314,"r":0},{"x":-181,"y":111.5,"r":0},{"x":-181,"y":-113.5,"r":0},{"x":359,"y":-226,"r":0},{"x":359,"y":224,"r":0},{"x":179,"y":111.5,"r":0}],"samples_per_sec":"12.95","clicks":15,"pattern":"spread","trial_type":"webgazer-validate","trial_index":31,"time_elapsed":387092,"internal_node_id":"0.0-10.0-3.3","validation_points":[[85,85],[37.5,62.5],[75,75],[15,15],[75,25],[15,85],[50,50],[85,15],[62.5,37.5],[62.5,62.5],[25,75],[25,25],[37.5,37.5]],"user_agent":"Mozilla/5.0 (Macintosh; Intel Mac OS X 10_15_6) AppleWebKit/605.1.15 (KHTML, like Gecko) Version/14.0.3 Safari/605.1.15","screen_width_px":1440,"screen_height_px":900},{"rt":2142,"stimulus":"\n      <p>Round complete.</p>\n      <p>You can move a little bit, but please try to return you head to the same general location before continuing.</p>\n    ","response":0,"trial_type":"html-button-response","trial_index":32,"time_elapsed":389234,"internal_node_id":"0.0-10.0-4.3","user_agent":"Mozilla/5.0 (Macintosh; Intel Mac OS X 10_15_6) AppleWebKit/605.1.15 (KHTML, like Gecko) Version/14.0.3 Safari/605.1.15","screen_width_px":1440,"screen_height_px":900},{"trial_type":"webgazer-init-camera","trial_index":33,"time_elapsed":392982,"internal_node_id":"0.0-10.0-5.3","user_agent":"Mozilla/5.0 (Macintosh; Intel Mac OS X 10_15_6) AppleWebKit/605.1.15 (KHTML, like Gecko) Version/14.0.3 Safari/605.1.15","screen_width_px":1440,"screen_height_px":900},{"rt":2037,"stimulus":"\n      <p>Calibration phase next.</p>\n      <p>Click on the dots.</p>\n    ","response":0,"trial_type":"html-button-response","trial_index":34,"time_elapsed":395023,"internal_node_id":"0.0-10.0-0.4","user_agent":"Mozilla/5.0 (Macintosh; Intel Mac OS X 10_15_6) AppleWebKit/605.1.15 (KHTML, like Gecko) Version/14.0.3 Safari/605.1.15","screen_width_px":1440,"screen_height_px":900},{"trial_type":"webgazer-calibrate","trial_index":35,"time_elapsed":433535,"internal_node_id":"0.0-10.0-1.4","user_agent":"Mozilla/5.0 (Macintosh; Intel Mac OS X 10_15_6) AppleWebKit/605.1.15 (KHTML, like Gecko) Version/14.0.3 Safari/605.1.15","screen_width_px":1440,"screen_height_px":900},{"rt":1720,"stimulus":"\n      <p>Validation phase next.</p>\n      <p>Look at the dots.</p>\n    ","response":0,"trial_type":"html-button-response","trial_index":36,"time_elapsed":435258,"internal_node_id":"0.0-10.0-2.4","user_agent":"Mozilla/5.0 (Macintosh; Intel Mac OS X 10_15_6) AppleWebKit/605.1.15 (KHTML, like Gecko) Version/14.0.3 Safari/605.1.15","screen_width_px":1440,"screen_height_px":900},{"raw_gaze":[[{"dx":2,"dy":-3,"t":1060},{"dx":0,"dy":-2,"t":1138},{"dx":-1,"dy":-2,"t":1220},{"dx":-2,"dy":-2,"t":1299},{"dx":-2,"dy":-2,"t":1375},{"dx":-2,"dy":-2,"t":1459},{"dx":-2,"dy":-2,"t":1534},{"dx":-2,"dy":-2,"t":1610},{"dx":-1,"dy":-2,"t":1690},{"dx":-1,"dy":-2,"t":1767},{"dx":-1,"dy":-2,"t":1839},{"dx":-1,"dy":-2,"t":1919},{"dx":-1,"dy":-2,"t":1998},{"dx":-1,"dy":-2,"t":2083},{"dx":-1,"dy":-2,"t":2165},{"dx":-1,"dy":-2,"t":2242},{"dx":-1,"dy":-2,"t":2327},{"dx":-1,"dy":-2,"t":2399},{"dx":-1,"dy":-2,"t":2474},{"dx":-1,"dy":-2,"t":2562},{"dx":-1,"dy":-2,"t":2637},{"dx":-1,"dy":-2,"t":2710},{"dx":-1,"dy":-2,"t":2798},{"dx":-1,"dy":-2,"t":2874},{"dx":-1,"dy":-2,"t":2957},{"dx":-1,"dy":-2,"t":3055}],[{"dx":359,"dy":223,"t":4062},{"dx":359,"dy":223,"t":4142},{"dx":359,"dy":223,"t":4223},{"dx":359,"dy":223,"t":4293},{"dx":359,"dy":223,"t":4373},{"dx":359,"dy":223,"t":4451},{"dx":359,"dy":223,"t":4526},{"dx":359,"dy":223,"t":4607},{"dx":359,"dy":223,"t":4679},{"dx":359,"dy":223,"t":4755},{"dx":359,"dy":223,"t":4836},{"dx":359,"dy":223,"t":4910},{"dx":359,"dy":223,"t":4999},{"dx":359,"dy":223,"t":5078},{"dx":359,"dy":223,"t":5152},{"dx":359,"dy":223,"t":5230},{"dx":359,"dy":223,"t":5303},{"dx":359,"dy":223,"t":5379},{"dx":359,"dy":223,"t":5462},{"dx":359,"dy":223,"t":5533},{"dx":359,"dy":223,"t":5608},{"dx":359,"dy":223,"t":5692},{"dx":359,"dy":223,"t":5765},{"dx":359,"dy":223,"t":5845},{"dx":359,"dy":223,"t":5927},{"dx":359,"dy":223,"t":6008},{"dx":359,"dy":223,"t":6082}],[{"dx":179,"dy":110.5,"t":7098},{"dx":179,"dy":110.5,"t":7179},{"dx":179,"dy":110.5,"t":7255},{"dx":179,"dy":110.5,"t":7341},{"dx":179,"dy":110.5,"t":7425},{"dx":179,"dy":110.5,"t":7500},{"dx":179,"dy":110.5,"t":7589},{"dx":179,"dy":110.5,"t":7664},{"dx":179,"dy":110.5,"t":7739},{"dx":179,"dy":110.5,"t":7828},{"dx":179,"dy":110.5,"t":7903},{"dx":179,"dy":110.5,"t":7986},{"dx":179,"dy":110.5,"t":8064},{"dx":179,"dy":110.5,"t":8147},{"dx":179,"dy":110.5,"t":8234},{"dx":179,"dy":110.5,"t":8309},{"dx":179,"dy":110.5,"t":8388},{"dx":179,"dy":110.5,"t":8468},{"dx":179,"dy":110.5,"t":8546},{"dx":179,"dy":110.5,"t":8623},{"dx":179,"dy":110.5,"t":8704},{"dx":179,"dy":110.5,"t":8778},{"dx":179,"dy":110.5,"t":8854},{"dx":179,"dy":110.5,"t":8934},{"dx":179,"dy":110.5,"t":9011},{"dx":179,"dy":110.5,"t":9095}],[{"dx":359,"dy":-227,"t":10125},{"dx":359,"dy":-227,"t":10204},{"dx":359,"dy":-227,"t":10278},{"dx":359,"dy":-227,"t":10357},{"dx":359,"dy":-227,"t":10435},{"dx":359,"dy":-227,"t":10510},{"dx":359,"dy":-227,"t":10594},{"dx":359,"dy":-227,"t":10674},{"dx":359,"dy":-227,"t":10751},{"dx":359,"dy":-227,"t":10826},{"dx":359,"dy":-227,"t":10911},{"dx":359,"dy":-227,"t":10987},{"dx":359,"dy":-227,"t":11068},{"dx":359,"dy":-227,"t":11152},{"dx":359,"dy":-227,"t":11231},{"dx":359,"dy":-227,"t":11305},{"dx":359,"dy":-227,"t":11387},{"dx":359,"dy":-227,"t":11462},{"dx":359,"dy":-227,"t":11544},{"dx":359,"dy":-227,"t":11627},{"dx":359,"dy":-227,"t":11701},{"dx":359,"dy":-227,"t":11776},{"dx":359,"dy":-227,"t":11857},{"dx":359,"dy":-227,"t":11939},{"dx":359,"dy":-227,"t":12021},{"dx":359,"dy":-227,"t":12099}],[{"dx":-361,"dy":223,"t":13105},{"dx":-361,"dy":223,"t":13192},{"dx":-361,"dy":223,"t":13273},{"dx":-361,"dy":223,"t":13353},{"dx":-361,"dy":223,"t":13431},{"dx":-361,"dy":223,"t":13505},{"dx":-361,"dy":223,"t":13589},{"dx":-361,"dy":223,"t":13668},{"dx":-361,"dy":223,"t":13741},{"dx":-361,"dy":223,"t":13818},{"dx":-361,"dy":223,"t":13899},{"dx":-361,"dy":223,"t":13976},{"dx":-361,"dy":223,"t":14060},{"dx":-361,"dy":223,"t":14136},{"dx":-361,"dy":223,"t":14210},{"dx":-361,"dy":223,"t":14293},{"dx":-361,"dy":223,"t":14368},{"dx":-361,"dy":223,"t":14448},{"dx":-361,"dy":223,"t":14525},{"dx":-361,"dy":223,"t":14602},{"dx":-361,"dy":223,"t":14684},{"dx":-361,"dy":223,"t":14759},{"dx":-361,"dy":223,"t":14835},{"dx":-361,"dy":223,"t":14916},{"dx":-361,"dy":223,"t":14993},{"dx":-361,"dy":223,"t":15073},{"dx":-361,"dy":223,"t":15154}],[{"dx":-181,"dy":110.5,"t":16177},{"dx":-181,"dy":110.5,"t":16256},{"dx":-181,"dy":110.5,"t":16336},{"dx":-181,"dy":110.5,"t":16409},{"dx":-181,"dy":110.5,"t":16489},{"dx":-181,"dy":110.5,"t":16574},{"dx":-181,"dy":110.5,"t":16649},{"dx":-181,"dy":110.5,"t":16729},{"dx":-181,"dy":110.5,"t":16803},{"dx":-181,"dy":110.5,"t":16881},{"dx":-181,"dy":110.5,"t":16965},{"dx":-181,"dy":110.5,"t":17044},{"dx":-181,"dy":110.5,"t":17126},{"dx":-181,"dy":110.5,"t":17207},{"dx":-181,"dy":110.5,"t":17280},{"dx":-181,"dy":110.5,"t":17358},{"dx":-181,"dy":110.5,"t":17437},{"dx":-181,"dy":110.5,"t":17512},{"dx":-181,"dy":110.5,"t":17606},{"dx":-181,"dy":110.5,"t":17681},{"dx":-181,"dy":110.5,"t":17760},{"dx":-181,"dy":110.5,"t":17840},{"dx":-181,"dy":110.5,"t":17916},{"dx":-181,"dy":110.5,"t":18000},{"dx":-181,"dy":110.5,"t":18078},{"dx":-181,"dy":110.5,"t":18160}],[{"dx":-505,"dy":313,"t":19195},{"dx":-505,"dy":313,"t":19274},{"dx":-505,"dy":313,"t":19370},{"dx":-505,"dy":313,"t":19448},{"dx":-505,"dy":313,"t":19520},{"dx":-505,"dy":313,"t":19606},{"dx":-505,"dy":313,"t":19686},{"dx":-505,"dy":313,"t":19767},{"dx":-505,"dy":313,"t":19845},{"dx":-505,"dy":313,"t":19921},{"dx":-505,"dy":313,"t":19999},{"dx":-505,"dy":313,"t":20081},{"dx":-505,"dy":313,"t":20157},{"dx":-505,"dy":313,"t":20235},{"dx":-505,"dy":313,"t":20321},{"dx":-505,"dy":313,"t":20398},{"dx":-505,"dy":313,"t":20482},{"dx":-505,"dy":313,"t":20564},{"dx":-505,"dy":313,"t":20640},{"dx":-505,"dy":313,"t":20724},{"dx":-505,"dy":313,"t":20802},{"dx":-505,"dy":313,"t":20880},{"dx":-505,"dy":313,"t":20962},{"dx":-505,"dy":313,"t":21042},{"dx":-505,"dy":313,"t":21120},{"dx":-505,"dy":313,"t":21202}],[{"dx":-505,"dy":-317,"t":22205},{"dx":-505,"dy":-317,"t":22281},{"dx":-505,"dy":-317,"t":22362},{"dx":-505,"dy":-317,"t":22440},{"dx":-505,"dy":-317,"t":22514},{"dx":-505,"dy":-317,"t":22603},{"dx":-505,"dy":-317,"t":22677},{"dx":-505,"dy":-317,"t":22756},{"dx":-505,"dy":-317,"t":22832},{"dx":-505,"dy":-317,"t":22907},{"dx":-505,"dy":-317,"t":22989},{"dx":-505,"dy":-317,"t":23063},{"dx":-505,"dy":-317,"t":23143},{"dx":-505,"dy":-317,"t":23228},{"dx":-505,"dy":-317,"t":23305},{"dx":-505,"dy":-317,"t":23384},{"dx":-505,"dy":-317,"t":23468},{"dx":-505,"dy":-317,"t":23544},{"dx":-505,"dy":-317,"t":23623},{"dx":-505,"dy":-317,"t":23705},{"dx":-505,"dy":-317,"t":23782},{"dx":-505,"dy":-317,"t":23865},{"dx":-505,"dy":-317,"t":23946},{"dx":-505,"dy":-317,"t":24029},{"dx":-505,"dy":-317,"t":24116},{"dx":-505,"dy":-317,"t":24192},{"dx":-505,"dy":-317,"t":24264}],[{"dx":503,"dy":-317,"t":25279},{"dx":503,"dy":-317,"t":25352},{"dx":503,"dy":-317,"t":25432},{"dx":503,"dy":-317,"t":25508},{"dx":503,"dy":-317,"t":25580},{"dx":503,"dy":-317,"t":25659},{"dx":503,"dy":-317,"t":25734},{"dx":503,"dy":-317,"t":25814},{"dx":503,"dy":-317,"t":25885},{"dx":503,"dy":-317,"t":25958},{"dx":503,"dy":-317,"t":26051},{"dx":503,"dy":-317,"t":26124},{"dx":503,"dy":-317,"t":26203},{"dx":503,"dy":-317,"t":26279},{"dx":503,"dy":-317,"t":26351},{"dx":503,"dy":-317,"t":26424},{"dx":503,"dy":-317,"t":26504},{"dx":503,"dy":-317,"t":26578},{"dx":503,"dy":-317,"t":26651},{"dx":503,"dy":-317,"t":26729},{"dx":503,"dy":-317,"t":26802},{"dx":503,"dy":-317,"t":26879},{"dx":503,"dy":-317,"t":26952},{"dx":503,"dy":-317,"t":27031},{"dx":503,"dy":-317,"t":27114},{"dx":503,"dy":-317,"t":27188},{"dx":503,"dy":-317,"t":27264},{"dx":503,"dy":-317,"t":27350}],[{"dx":179,"dy":-114.5,"t":28372},{"dx":179,"dy":-114.5,"t":28454},{"dx":179,"dy":-114.5,"t":28529},{"dx":179,"dy":-114.5,"t":28618},{"dx":179,"dy":-114.5,"t":28691},{"dx":179,"dy":-114.5,"t":28767},{"dx":179,"dy":-114.5,"t":28847},{"dx":179,"dy":-114.5,"t":28923},{"dx":179,"dy":-114.5,"t":29002},{"dx":179,"dy":-114.5,"t":29085},{"dx":179,"dy":-114.5,"t":29162},{"dx":179,"dy":-114.5,"t":29240},{"dx":179,"dy":-114.5,"t":29320},{"dx":179,"dy":-114.5,"t":29395},{"dx":179,"dy":-114.5,"t":29474},{"dx":179,"dy":-114.5,"t":29556},{"dx":179,"dy":-114.5,"t":29637},{"dx":179,"dy":-114.5,"t":29719},{"dx":179,"dy":-114.5,"t":29794},{"dx":179,"dy":-114.5,"t":29868},{"dx":179,"dy":-114.5,"t":29950},{"dx":179,"dy":-114.5,"t":30030},{"dx":179,"dy":-114.5,"t":30110},{"dx":179,"dy":-114.5,"t":30191},{"dx":179,"dy":-114.5,"t":30263},{"dx":179,"dy":-114.5,"t":30339},{"dx":179,"dy":-114.5,"t":30422}],[{"dx":-361,"dy":-227,"t":31454},{"dx":-361,"dy":-227,"t":31529},{"dx":-361,"dy":-227,"t":31608},{"dx":-361,"dy":-227,"t":31684},{"dx":-361,"dy":-227,"t":31758},{"dx":-361,"dy":-227,"t":31838},{"dx":-361,"dy":-227,"t":31913},{"dx":-361,"dy":-227,"t":31992},{"dx":-361,"dy":-227,"t":32074},{"dx":-361,"dy":-227,"t":32153},{"dx":-361,"dy":-227,"t":32235},{"dx":-361,"dy":-227,"t":32317},{"dx":-361,"dy":-227,"t":32392},{"dx":-361,"dy":-227,"t":32467},{"dx":-361,"dy":-227,"t":32552},{"dx":-361,"dy":-227,"t":32626},{"dx":-361,"dy":-227,"t":32700},{"dx":-361,"dy":-227,"t":32780},{"dx":-361,"dy":-227,"t":32856},{"dx":-361,"dy":-227,"t":32938},{"dx":-361,"dy":-227,"t":33023},{"dx":-361,"dy":-227,"t":33099},{"dx":-361,"dy":-227,"t":33181},{"dx":-361,"dy":-227,"t":33259},{"dx":-361,"dy":-227,"t":33338},{"dx":-361,"dy":-227,"t":33422},{"dx":-361,"dy":-227,"t":33498}],[{"dx":-181,"dy":-114.5,"t":34538},{"dx":-181,"dy":-114.5,"t":34623},{"dx":-181,"dy":-114.5,"t":34707},{"dx":-181,"dy":-114.5,"t":34791},{"dx":-181,"dy":-114.5,"t":34868},{"dx":-181,"dy":-114.5,"t":34954},{"dx":-181,"dy":-114.5,"t":35031},{"dx":-181,"dy":-114.5,"t":35108},{"dx":-181,"dy":-114.5,"t":35196},{"dx":-181,"dy":-114.5,"t":35269},{"dx":-181,"dy":-114.5,"t":35352},{"dx":-181,"dy":-114.5,"t":35430},{"dx":-181,"dy":-114.5,"t":35504},{"dx":-181,"dy":-114.5,"t":35590},{"dx":-181,"dy":-114.5,"t":35665},{"dx":-181,"dy":-114.5,"t":35742},{"dx":-181,"dy":-114.5,"t":35825},{"dx":-181,"dy":-114.5,"t":35901},{"dx":-181,"dy":-114.5,"t":35982},{"dx":-181,"dy":-114.5,"t":36064},{"dx":-181,"dy":-114.5,"t":36136},{"dx":-181,"dy":-114.5,"t":36216},{"dx":-181,"dy":-114.5,"t":36303},{"dx":-181,"dy":-114.5,"t":36385},{"dx":-181,"dy":-114.5,"t":36470},{"dx":-181,"dy":-114.5,"t":36568}],[{"dx":503,"dy":313,"t":37568},{"dx":503,"dy":313,"t":37647},{"dx":503,"dy":313,"t":37732},{"dx":503,"dy":313,"t":37810},{"dx":503,"dy":313,"t":37898},{"dx":503,"dy":313,"t":37982},{"dx":503,"dy":313,"t":38064},{"dx":503,"dy":313,"t":38150},{"dx":503,"dy":313,"t":38236},{"dx":503,"dy":313,"t":38320},{"dx":503,"dy":313,"t":38407},{"dx":503,"dy":313,"t":38490},{"dx":503,"dy":313,"t":38568},{"dx":503,"dy":313,"t":38654},{"dx":503,"dy":313,"t":38733},{"dx":503,"dy":313,"t":38813},{"dx":503,"dy":313,"t":38895},{"dx":503,"dy":313,"t":38975},{"dx":503,"dy":313,"t":39060},{"dx":503,"dy":313,"t":39140},{"dx":503,"dy":313,"t":39220},{"dx":503,"dy":313,"t":39308},{"dx":503,"dy":313,"t":39391},{"dx":503,"dy":313,"t":39469},{"dx":503,"dy":313,"t":39554}]],"percent_in_roi":[100,0,0,0,0,0,0,0,0,0,0,0,0],"average_offset":[{"x":-1.0384615384615385,"y":-2.0384615384615383,"r":0.08158924398306312},{"x":359,"y":223,"r":0},{"x":179,"y":110.5,"r":0},{"x":359,"y":-227,"r":0},{"x":-361,"y":223,"r":0},{"x":-181,"y":110.5,"r":0},{"x":-505,"y":313,"r":0},{"x":-505,"y":-317,"r":0},{"x":503,"y":-317,"r":0},{"x":179,"y":-114.5,"r":0},{"x":-361,"y":-227,"r":0},{"x":-181,"y":-114.5,"r":0},{"x":503,"y":313,"r":0}],"samples_per_sec":"12.60","clicks":25,"pattern":"spread","trial_type":"webgazer-validate","trial_index":37,"time_elapsed":475859,"internal_node_id":"0.0-10.0-3.4","validation_points":[[50,50],[25,25],[37.5,37.5],[25,75],[75,25],[62.5,37.5],[85,15],[85,85],[15,85],[37.5,62.5],[75,75],[62.5,62.5],[15,15]],"user_agent":"Mozilla/5.0 (Macintosh; Intel Mac OS X 10_15_6) AppleWebKit/605.1.15 (KHTML, like Gecko) Version/14.0.3 Safari/605.1.15","screen_width_px":1440,"screen_height_px":900},{"rt":1615,"stimulus":"\n      <p>Round complete.</p>\n      <p>You can move a little bit, but please try to return you head to the same general location before continuing.</p>\n    ","response":0,"trial_type":"html-button-response","trial_index":38,"time_elapsed":477475,"internal_node_id":"0.0-10.0-4.4","user_agent":"Mozilla/5.0 (Macintosh; Intel Mac OS X 10_15_6) AppleWebKit/605.1.15 (KHTML, like Gecko) Version/14.0.3 Safari/605.1.15","screen_width_px":1440,"screen_height_px":900},{"trial_type":"webgazer-init-camera","trial_index":39,"time_elapsed":479990,"internal_node_id":"0.0-10.0-5.4","user_agent":"Mozilla/5.0 (Macintosh; Intel Mac OS X 10_15_6) AppleWebKit/605.1.15 (KHTML, like Gecko) Version/14.0.3 Safari/605.1.15","screen_width_px":1440,"screen_height_px":900},{"rt":1312,"stimulus":"\n      <p>Calibration phase next.</p>\n      <p>Click on the dots.</p>\n    ","response":0,"trial_type":"html-button-response","trial_index":40,"time_elapsed":481306,"internal_node_id":"0.0-10.0-0.5","user_agent":"Mozilla/5.0 (Macintosh; Intel Mac OS X 10_15_6) AppleWebKit/605.1.15 (KHTML, like Gecko) Version/14.0.3 Safari/605.1.15","screen_width_px":1440,"screen_height_px":900},{"trial_type":"webgazer-calibrate","trial_index":41,"time_elapsed":518878,"internal_node_id":"0.0-10.0-1.5","user_agent":"Mozilla/5.0 (Macintosh; Intel Mac OS X 10_15_6) AppleWebKit/605.1.15 (KHTML, like Gecko) Version/14.0.3 Safari/605.1.15","screen_width_px":1440,"screen_height_px":900},{"rt":1864.0000000000582,"stimulus":"\n      <p>Validation phase next.</p>\n      <p>Look at the dots.</p>\n    ","response":0,"trial_type":"html-button-response","trial_index":42,"time_elapsed":520745,"internal_node_id":"0.0-10.0-2.5","user_agent":"Mozilla/5.0 (Macintosh; Intel Mac OS X 10_15_6) AppleWebKit/605.1.15 (KHTML, like Gecko) Version/14.0.3 Safari/605.1.15","screen_width_px":1440,"screen_height_px":900},{"raw_gaze":[[{"dx":514,"dy":-325,"t":1066},{"dx":514,"dy":-325,"t":1144},{"dx":514,"dy":-325,"t":1226},{"dx":514,"dy":-325,"t":1304},{"dx":514,"dy":-325,"t":1384},{"dx":514,"dy":-325,"t":1469},{"dx":514,"dy":-324,"t":1547},{"dx":514,"dy":-324,"t":1623},{"dx":514,"dy":-324,"t":1703},{"dx":514,"dy":-325,"t":1787},{"dx":514,"dy":-325,"t":1864},{"dx":514,"dy":-325,"t":1940},{"dx":514,"dy":-325,"t":2016},{"dx":514,"dy":-325,"t":2101},{"dx":514,"dy":-325,"t":2178},{"dx":514,"dy":-325,"t":2260},{"dx":514,"dy":-325,"t":2341},{"dx":514,"dy":-325,"t":2415},{"dx":514,"dy":-325,"t":2496},{"dx":514,"dy":-325,"t":2574},{"dx":514,"dy":-325,"t":2652},{"dx":514,"dy":-325,"t":2726},{"dx":514,"dy":-325,"t":2807},{"dx":514,"dy":-325,"t":2891},{"dx":514,"dy":-325,"t":2964},{"dx":514,"dy":-325,"t":3045}],[{"dx":-505,"dy":313,"t":4153},{"dx":-505,"dy":313,"t":4256},{"dx":-505,"dy":313,"t":4361},{"dx":-505,"dy":313,"t":4504},{"dx":-505,"dy":313,"t":4633},{"dx":-505,"dy":313,"t":4711},{"dx":-505,"dy":313,"t":4789},{"dx":-505,"dy":313,"t":4872},{"dx":-505,"dy":313,"t":4949},{"dx":-505,"dy":313,"t":5027},{"dx":-505,"dy":313,"t":5112},{"dx":-505,"dy":313,"t":5194},{"dx":-505,"dy":313,"t":5275},{"dx":-505,"dy":313,"t":5357},{"dx":-505,"dy":313,"t":5435},{"dx":-505,"dy":313,"t":5519},{"dx":-505,"dy":313,"t":5602},{"dx":-505,"dy":313,"t":5686},{"dx":-505,"dy":313,"t":5774},{"dx":-505,"dy":313,"t":5853},{"dx":-505,"dy":313,"t":5931},{"dx":-505,"dy":313,"t":6016},{"dx":-505,"dy":313,"t":6092}],[{"dx":190,"dy":-122.5,"t":7111},{"dx":190,"dy":-122.5,"t":7194},{"dx":190,"dy":-122.5,"t":7272},{"dx":190,"dy":-122.5,"t":7348},{"dx":190,"dy":-122.5,"t":7431},{"dx":190,"dy":-122.5,"t":7505},{"dx":190,"dy":-122.5,"t":7579},{"dx":190,"dy":-122.5,"t":7666},{"dx":190,"dy":-122.5,"t":7742},{"dx":190,"dy":-122.5,"t":7824},{"dx":190,"dy":-122.5,"t":7903},{"dx":190,"dy":-122.5,"t":7983},{"dx":190,"dy":-122.5,"t":8067},{"dx":190,"dy":-122.5,"t":8144},{"dx":190,"dy":-122.5,"t":8226},{"dx":190,"dy":-122.5,"t":8312},{"dx":190,"dy":-122.5,"t":8392},{"dx":190,"dy":-122.5,"t":8470},{"dx":190,"dy":-122.5,"t":8562},{"dx":190,"dy":-122.5,"t":8635},{"dx":190,"dy":-122.5,"t":8714},{"dx":190,"dy":-122.5,"t":8793},{"dx":190,"dy":-122.5,"t":8868},{"dx":190,"dy":-122.5,"t":8949},{"dx":190,"dy":-122.5,"t":9029},{"dx":190,"dy":-122.5,"t":9106}],[{"dx":-505,"dy":-317,"t":10146},{"dx":-505,"dy":-317,"t":10228},{"dx":-505,"dy":-317,"t":10306},{"dx":-505,"dy":-317,"t":10395},{"dx":-505,"dy":-317,"t":10473},{"dx":-505,"dy":-317,"t":10556},{"dx":-505,"dy":-317,"t":10635},{"dx":-505,"dy":-317,"t":10712},{"dx":-505,"dy":-317,"t":10789},{"dx":-505,"dy":-317,"t":10867},{"dx":-505,"dy":-317,"t":10943},{"dx":-505,"dy":-317,"t":11024},{"dx":-505,"dy":-317,"t":11101},{"dx":-505,"dy":-317,"t":11180},{"dx":-505,"dy":-317,"t":11267},{"dx":-505,"dy":-317,"t":11343},{"dx":-505,"dy":-317,"t":11427},{"dx":-505,"dy":-317,"t":11510},{"dx":-505,"dy":-317,"t":11585},{"dx":-505,"dy":-317,"t":11664},{"dx":-505,"dy":-317,"t":11744},{"dx":-505,"dy":-317,"t":11824},{"dx":-505,"dy":-317,"t":11897},{"dx":-505,"dy":-317,"t":11976},{"dx":-505,"dy":-317,"t":12053},{"dx":-505,"dy":-317,"t":12133}],[{"dx":-350,"dy":-235,"t":13163},{"dx":-350,"dy":-235,"t":13245},{"dx":-350,"dy":-235,"t":13322},{"dx":-350,"dy":-235,"t":13405},{"dx":-350,"dy":-235,"t":13489},{"dx":-350,"dy":-235,"t":13572},{"dx":-350,"dy":-235,"t":13652},{"dx":-350,"dy":-235,"t":13731},{"dx":-350,"dy":-235,"t":13804},{"dx":-350,"dy":-235,"t":13894},{"dx":-350,"dy":-235,"t":13969},{"dx":-350,"dy":-235,"t":14047},{"dx":-350,"dy":-235,"t":14137},{"dx":-350,"dy":-235,"t":14213},{"dx":-350,"dy":-235,"t":14290},{"dx":-350,"dy":-235,"t":14370},{"dx":-350,"dy":-235,"t":14448},{"dx":-350,"dy":-235,"t":14535},{"dx":-350,"dy":-235,"t":14615},{"dx":-350,"dy":-235,"t":14696},{"dx":-350,"dy":-235,"t":14785},{"dx":-350,"dy":-235,"t":14865},{"dx":-350,"dy":-235,"t":14942},{"dx":-350,"dy":-235,"t":15026},{"dx":-350,"dy":-235,"t":15102},{"dx":-350,"dy":-235,"t":15185}],[{"dx":-181,"dy":-114.5,"t":16214},{"dx":-181,"dy":-114.5,"t":16294},{"dx":-181,"dy":-114.5,"t":16368},{"dx":-181,"dy":-114.5,"t":16450},{"dx":-181,"dy":-114.5,"t":16528},{"dx":-181,"dy":-114.5,"t":16608},{"dx":-181,"dy":-114.5,"t":16690},{"dx":-181,"dy":-114.5,"t":16767},{"dx":-181,"dy":-114.5,"t":16843},{"dx":-181,"dy":-114.5,"t":16925},{"dx":-181,"dy":-114.5,"t":17000},{"dx":-181,"dy":-114.5,"t":17079},{"dx":-181,"dy":-114.5,"t":17167},{"dx":-181,"dy":-114.5,"t":17245},{"dx":-181,"dy":-114.5,"t":17326},{"dx":-181,"dy":-114.5,"t":17421},{"dx":-181,"dy":-114.5,"t":17501},{"dx":-181,"dy":-114.5,"t":17585},{"dx":-181,"dy":-114.5,"t":17663},{"dx":-181,"dy":-114.5,"t":17739},{"dx":-181,"dy":-114.5,"t":17821},{"dx":-181,"dy":-114.5,"t":17903},{"dx":-181,"dy":-114.5,"t":17982},{"dx":-181,"dy":-114.5,"t":18067},{"dx":-181,"dy":-114.5,"t":18146},{"dx":-181,"dy":-114.5,"t":18219}],[{"dx":-1,"dy":-2,"t":19239},{"dx":-1,"dy":-2,"t":19320},{"dx":-1,"dy":-2,"t":19400},{"dx":-1,"dy":-2,"t":19480},{"dx":-1,"dy":-2,"t":19556},{"dx":-1,"dy":-2,"t":19631},{"dx":-1,"dy":-2,"t":19720},{"dx":-1,"dy":-2,"t":19797},{"dx":-1,"dy":-2,"t":19872},{"dx":-1,"dy":-2,"t":19954},{"dx":-1,"dy":-2,"t":20031},{"dx":-1,"dy":-2,"t":20115},{"dx":-1,"dy":-2,"t":20199},{"dx":-1,"dy":-2,"t":20280},{"dx":-1,"dy":-2,"t":20360},{"dx":-1,"dy":-2,"t":20439},{"dx":-1,"dy":-2,"t":20514},{"dx":-1,"dy":-2,"t":20596},{"dx":-1,"dy":-2,"t":20673},{"dx":-1,"dy":-2,"t":20747},{"dx":-1,"dy":-2,"t":20832},{"dx":-1,"dy":-2,"t":20909},{"dx":-1,"dy":-2,"t":20997},{"dx":-1,"dy":-2,"t":21073},{"dx":-1,"dy":-2,"t":21150},{"dx":-1,"dy":-2,"t":21235}],[{"dx":-350,"dy":215,"t":22260},{"dx":-350,"dy":215,"t":22344},{"dx":-350,"dy":215,"t":22419},{"dx":-350,"dy":215,"t":22497},{"dx":-350,"dy":215,"t":22587},{"dx":-350,"dy":215,"t":22668},{"dx":-350,"dy":215,"t":22749},{"dx":-350,"dy":215,"t":22828},{"dx":-350,"dy":215,"t":22907},{"dx":-350,"dy":215,"t":22983},{"dx":-350,"dy":215,"t":23065},{"dx":-350,"dy":215,"t":23143},{"dx":-350,"dy":215,"t":23219},{"dx":-350,"dy":215,"t":23305},{"dx":-350,"dy":215,"t":23381},{"dx":-350,"dy":215,"t":23458},{"dx":-350,"dy":215,"t":23539},{"dx":-350,"dy":215,"t":23614},{"dx":-350,"dy":215,"t":23697},{"dx":-350,"dy":215,"t":23775},{"dx":-350,"dy":215,"t":23852},{"dx":-350,"dy":215,"t":23942},{"dx":-350,"dy":215,"t":24019},{"dx":-350,"dy":215,"t":24101},{"dx":-350,"dy":215,"t":24183},{"dx":-350,"dy":215,"t":24260}],[{"dx":179,"dy":110.5,"t":25285},{"dx":179,"dy":110.5,"t":25368},{"dx":179,"dy":110.5,"t":25447},{"dx":179,"dy":110.5,"t":25523},{"dx":179,"dy":110.5,"t":25610},{"dx":179,"dy":110.5,"t":25685},{"dx":179,"dy":110.5,"t":25760},{"dx":179,"dy":110.5,"t":25845},{"dx":179,"dy":110.5,"t":25918},{"dx":179,"dy":110.5,"t":25995},{"dx":179,"dy":110.5,"t":26077},{"dx":179,"dy":110.5,"t":26156},{"dx":179,"dy":110.5,"t":26234},{"dx":179,"dy":110.5,"t":26317},{"dx":179,"dy":110.5,"t":26394},{"dx":179,"dy":110.5,"t":26474},{"dx":179,"dy":110.5,"t":26555},{"dx":179,"dy":110.5,"t":26635},{"dx":179,"dy":110.5,"t":26711},{"dx":179,"dy":110.5,"t":26797},{"dx":179,"dy":110.5,"t":26875},{"dx":179,"dy":110.5,"t":26953},{"dx":179,"dy":110.5,"t":27031},{"dx":179,"dy":110.5,"t":27118},{"dx":179,"dy":110.5,"t":27198},{"dx":179,"dy":110.5,"t":27279}],[{"dx":514,"dy":305,"t":28300},{"dx":514,"dy":305,"t":28387},{"dx":514,"dy":305,"t":28464},{"dx":514,"dy":305,"t":28538},{"dx":514,"dy":305,"t":28622},{"dx":514,"dy":305,"t":28701},{"dx":514,"dy":305,"t":28776},{"dx":514,"dy":305,"t":28854},{"dx":514,"dy":305,"t":28926},{"dx":514,"dy":305,"t":29006},{"dx":514,"dy":305,"t":29086},{"dx":514,"dy":305,"t":29164},{"dx":514,"dy":305,"t":29242},{"dx":514,"dy":305,"t":29328},{"dx":514,"dy":305,"t":29406},{"dx":514,"dy":305,"t":29482},{"dx":514,"dy":305,"t":29565},{"dx":514,"dy":305,"t":29640},{"dx":514,"dy":305,"t":29715},{"dx":514,"dy":305,"t":29794},{"dx":514,"dy":305,"t":29871},{"dx":514,"dy":305,"t":29954},{"dx":514,"dy":305,"t":30031},{"dx":514,"dy":305,"t":30114},{"dx":514,"dy":305,"t":30194},{"dx":514,"dy":305,"t":30277},{"dx":514,"dy":305,"t":30355}],[{"dx":370,"dy":215,"t":31357},{"dx":370,"dy":215,"t":31442},{"dx":370,"dy":215,"t":31515},{"dx":370,"dy":215,"t":31590},{"dx":370,"dy":215,"t":31675},{"dx":370,"dy":215,"t":31751},{"dx":370,"dy":215,"t":31833},{"dx":370,"dy":215,"t":31921},{"dx":370,"dy":215,"t":32008},{"dx":370,"dy":215,"t":32089},{"dx":370,"dy":215,"t":32168},{"dx":370,"dy":215,"t":32249},{"dx":370,"dy":215,"t":32328},{"dx":370,"dy":215,"t":32410},{"dx":370,"dy":215,"t":32486},{"dx":370,"dy":215,"t":32570},{"dx":370,"dy":215,"t":32646},{"dx":370,"dy":215,"t":32725},{"dx":370,"dy":215,"t":32808},{"dx":370,"dy":215,"t":32888},{"dx":370,"dy":215,"t":32966},{"dx":370,"dy":215,"t":33049},{"dx":370,"dy":215,"t":33126},{"dx":370,"dy":215,"t":33202},{"dx":370,"dy":215,"t":33289},{"dx":370,"dy":215,"t":33367}],[{"dx":-170,"dy":102.5,"t":34397},{"dx":-170,"dy":102.5,"t":34485},{"dx":-170,"dy":102.5,"t":34571},{"dx":-170,"dy":102.5,"t":34651},{"dx":-170,"dy":102.5,"t":34726},{"dx":-170,"dy":102.5,"t":34806},{"dx":-170,"dy":102.5,"t":34885},{"dx":-170,"dy":102.5,"t":34959},{"dx":-170,"dy":102.5,"t":35042},{"dx":-170,"dy":102.5,"t":35118},{"dx":-170,"dy":102.5,"t":35193},{"dx":-170,"dy":102.5,"t":35274},{"dx":-170,"dy":102.5,"t":35357},{"dx":-170,"dy":102.5,"t":35432},{"dx":-170,"dy":102.5,"t":35522},{"dx":-170,"dy":102.5,"t":35597},{"dx":-170,"dy":102.5,"t":35673},{"dx":-170,"dy":102.5,"t":35753},{"dx":-170,"dy":102.5,"t":35828},{"dx":-170,"dy":102.5,"t":35908},{"dx":-170,"dy":102.5,"t":35986},{"dx":-170,"dy":102.5,"t":36064},{"dx":-170,"dy":102.5,"t":36149},{"dx":-170,"dy":102.5,"t":36226},{"dx":-170,"dy":102.5,"t":36304},{"dx":-170,"dy":102.5,"t":36394}],[{"dx":359,"dy":-227,"t":37402},{"dx":359,"dy":-227,"t":37487},{"dx":359,"dy":-227,"t":37561},{"dx":359,"dy":-227,"t":37636},{"dx":359,"dy":-227,"t":37722},{"dx":359,"dy":-227,"t":37801},{"dx":359,"dy":-227,"t":37880},{"dx":359,"dy":-227,"t":37961},{"dx":359,"dy":-227,"t":38039},{"dx":359,"dy":-227,"t":38127},{"dx":359,"dy":-227,"t":38205},{"dx":359,"dy":-227,"t":38288},{"dx":359,"dy":-227,"t":38370},{"dx":359,"dy":-227,"t":38452},{"dx":359,"dy":-227,"t":38544},{"dx":359,"dy":-227,"t":38628},{"dx":359,"dy":-227,"t":38705},{"dx":359,"dy":-227,"t":38796},{"dx":359,"dy":-227,"t":38871},{"dx":359,"dy":-227,"t":38952},{"dx":359,"dy":-227,"t":39040},{"dx":359,"dy":-227,"t":39119},{"dx":359,"dy":-227,"t":39195},{"dx":359,"dy":-227,"t":39280},{"dx":359,"dy":-227,"t":39356}]],"percent_in_roi":[0,0,0,0,0,0,100,0,0,0,0,0,0],"average_offset":[{"x":514,"y":-324.88461538461536,"r":0.17307692307696243},{"x":-505,"y":313,"r":0},{"x":190,"y":-122.5,"r":0},{"x":-505,"y":-317,"r":0},{"x":-350,"y":-235,"r":0},{"x":-181,"y":-114.5,"r":0},{"x":-1,"y":-2,"r":0},{"x":-350,"y":215,"r":0},{"x":179,"y":110.5,"r":0},{"x":514,"y":305,"r":0},{"x":370,"y":215,"r":0},{"x":-170,"y":102.5,"r":0},{"x":359,"y":-227,"r":0}],"samples_per_sec":"12.40","clicks":25,"pattern":"spread","trial_type":"webgazer-validate","trial_index":43,"time_elapsed":561146,"internal_node_id":"0.0-10.0-3.5","validation_points":[[15,85],[85,15],[37.5,62.5],[85,85],[75,75],[62.5,62.5],[50,50],[75,25],[37.5,37.5],[15,15],[25,25],[62.5,37.5],[25,75]],"user_agent":"Mozilla/5.0 (Macintosh; Intel Mac OS X 10_15_6) AppleWebKit/605.1.15 (KHTML, like Gecko) Version/14.0.3 Safari/605.1.15","screen_width_px":1440,"screen_height_px":900},{"rt":1852,"stimulus":"\n      <p>Round complete.</p>\n      <p>You can move a little bit, but please try to return you head to the same general location before continuing.</p>\n    ","response":0,"trial_type":"html-button-response","trial_index":44,"time_elapsed":563000,"internal_node_id":"0.0-10.0-4.5","user_agent":"Mozilla/5.0 (Macintosh; Intel Mac OS X 10_15_6) AppleWebKit/605.1.15 (KHTML, like Gecko) Version/14.0.3 Safari/605.1.15","screen_width_px":1440,"screen_height_px":900},{"trial_type":"webgazer-init-camera","trial_index":45,"time_elapsed":565728,"internal_node_id":"0.0-10.0-5.5","user_agent":"Mozilla/5.0 (Macintosh; Intel Mac OS X 10_15_6) AppleWebKit/605.1.15 (KHTML, like Gecko) Version/14.0.3 Safari/605.1.15","screen_width_px":1440,"screen_height_px":900},{"rt":1622,"stimulus":"\n      <p>Calibration phase next.</p>\n      <p>Click on the dots.</p>\n    ","response":0,"trial_type":"html-button-response","trial_index":46,"time_elapsed":567356,"internal_node_id":"0.0-10.0-0.6","user_agent":"Mozilla/5.0 (Macintosh; Intel Mac OS X 10_15_6) AppleWebKit/605.1.15 (KHTML, like Gecko) Version/14.0.3 Safari/605.1.15","screen_width_px":1440,"screen_height_px":900},{"trial_type":"webgazer-calibrate","trial_index":47,"time_elapsed":597588,"internal_node_id":"0.0-10.0-1.6","user_agent":"Mozilla/5.0 (Macintosh; Intel Mac OS X 10_15_6) AppleWebKit/605.1.15 (KHTML, like Gecko) Version/14.0.3 Safari/605.1.15","screen_width_px":1440,"screen_height_px":900},{"rt":1943,"stimulus":"\n      <p>Validation phase next.</p>\n      <p>Look at the dots.</p>\n    ","response":0,"trial_type":"html-button-response","trial_index":48,"time_elapsed":599532,"internal_node_id":"0.0-10.0-2.6","user_agent":"Mozilla/5.0 (Macintosh; Intel Mac OS X 10_15_6) AppleWebKit/605.1.15 (KHTML, like Gecko) Version/14.0.3 Safari/605.1.15","screen_width_px":1440,"screen_height_px":900},{"raw_gaze":[[{"dx":180,"dy":-115.5,"t":1071},{"dx":179,"dy":-114.5,"t":1143},{"dx":178,"dy":-113.5,"t":1219},{"dx":178,"dy":-113.5,"t":1300},{"dx":178,"dy":-113.5,"t":1377},{"dx":179,"dy":-113.5,"t":1450},{"dx":179,"dy":-113.5,"t":1529},{"dx":179,"dy":-113.5,"t":1609},{"dx":180,"dy":-113.5,"t":1685},{"dx":180,"dy":-113.5,"t":1761},{"dx":180,"dy":-113.5,"t":1841},{"dx":180,"dy":-113.5,"t":1913},{"dx":180,"dy":-113.5,"t":1992},{"dx":180,"dy":-113.5,"t":2064},{"dx":180,"dy":-113.5,"t":2141},{"dx":180,"dy":-113.5,"t":2212},{"dx":180,"dy":-113.5,"t":2286},{"dx":180,"dy":-113.5,"t":2378},{"dx":180,"dy":-113.5,"t":2452},{"dx":180,"dy":-113.5,"t":2531},{"dx":180,"dy":-113.5,"t":2612},{"dx":180,"dy":-113.5,"t":2685},{"dx":180,"dy":-113.5,"t":2756},{"dx":180,"dy":-113.5,"t":2835},{"dx":180,"dy":-113.5,"t":2913},{"dx":180,"dy":-113.5,"t":2993},{"dx":180,"dy":-113.5,"t":3074}],[{"dx":0,"dy":-1,"t":4100},{"dx":0,"dy":-1,"t":4210},{"dx":0,"dy":-1,"t":4286},{"dx":0,"dy":-1,"t":4365},{"dx":0,"dy":-1,"t":4456},{"dx":0,"dy":-1,"t":4534},{"dx":0,"dy":-1,"t":4609},{"dx":0,"dy":-1,"t":4697},{"dx":0,"dy":-1,"t":4774},{"dx":0,"dy":-1,"t":4849},{"dx":0,"dy":-1,"t":4928},{"dx":0,"dy":-1,"t":5012},{"dx":0,"dy":-1,"t":5085},{"dx":0,"dy":-1,"t":5166},{"dx":0,"dy":-1,"t":5250},{"dx":0,"dy":-1,"t":5333},{"dx":0,"dy":-1,"t":5416},{"dx":0,"dy":-1,"t":5500},{"dx":0,"dy":-1,"t":5582},{"dx":0,"dy":-1,"t":5655},{"dx":0,"dy":-1,"t":5727},{"dx":0,"dy":-1,"t":5809},{"dx":0,"dy":-1,"t":5885},{"dx":0,"dy":-1,"t":5959},{"dx":0,"dy":-1,"t":6037},{"dx":0,"dy":-1,"t":6115}],[{"dx":-180,"dy":-113.5,"t":7147},{"dx":-180,"dy":-113.5,"t":7228},{"dx":-180,"dy":-113.5,"t":7320},{"dx":-180,"dy":-113.5,"t":7392},{"dx":-180,"dy":-113.5,"t":7471},{"dx":-180,"dy":-113.5,"t":7545},{"dx":-180,"dy":-113.5,"t":7618},{"dx":-180,"dy":-113.5,"t":7695},{"dx":-180,"dy":-113.5,"t":7768},{"dx":-180,"dy":-113.5,"t":7846},{"dx":-180,"dy":-113.5,"t":7928},{"dx":-180,"dy":-113.5,"t":8002},{"dx":-180,"dy":-113.5,"t":8081},{"dx":-180,"dy":-113.5,"t":8159},{"dx":-180,"dy":-113.5,"t":8232},{"dx":-180,"dy":-113.5,"t":8315},{"dx":-180,"dy":-113.5,"t":8394},{"dx":-180,"dy":-113.5,"t":8466},{"dx":-180,"dy":-113.5,"t":8556},{"dx":-180,"dy":-113.5,"t":8633},{"dx":-180,"dy":-113.5,"t":8715},{"dx":-180,"dy":-113.5,"t":8800},{"dx":-180,"dy":-113.5,"t":8884},{"dx":-180,"dy":-113.5,"t":8960},{"dx":-180,"dy":-113.5,"t":9038},{"dx":-180,"dy":-113.5,"t":9115}],[{"dx":360,"dy":-226,"t":10147},{"dx":360,"dy":-226,"t":10220},{"dx":360,"dy":-226,"t":10298},{"dx":360,"dy":-226,"t":10373},{"dx":360,"dy":-226,"t":10447},{"dx":360,"dy":-226,"t":10527},{"dx":360,"dy":-226,"t":10607},{"dx":360,"dy":-226,"t":10682},{"dx":360,"dy":-226,"t":10760},{"dx":360,"dy":-226,"t":10831},{"dx":360,"dy":-226,"t":10913},{"dx":360,"dy":-226,"t":10987},{"dx":360,"dy":-226,"t":11054},{"dx":360,"dy":-226,"t":11127},{"dx":360,"dy":-226,"t":11210},{"dx":360,"dy":-226,"t":11285},{"dx":360,"dy":-226,"t":11361},{"dx":360,"dy":-226,"t":11440},{"dx":360,"dy":-226,"t":11518},{"dx":360,"dy":-226,"t":11594},{"dx":360,"dy":-226,"t":11678},{"dx":360,"dy":-226,"t":11754},{"dx":360,"dy":-226,"t":11826},{"dx":360,"dy":-226,"t":11903},{"dx":360,"dy":-226,"t":11976},{"dx":360,"dy":-226,"t":12056},{"dx":360,"dy":-226,"t":12129}],[{"dx":180,"dy":111.5,"t":13145},{"dx":180,"dy":111.5,"t":13225},{"dx":180,"dy":111.5,"t":13295},{"dx":180,"dy":111.5,"t":13373},{"dx":180,"dy":111.5,"t":13457},{"dx":180,"dy":111.5,"t":13530},{"dx":180,"dy":111.5,"t":13603},{"dx":180,"dy":111.5,"t":13682},{"dx":180,"dy":111.5,"t":13757},{"dx":180,"dy":111.5,"t":13829},{"dx":180,"dy":111.5,"t":13908},{"dx":180,"dy":111.5,"t":13983},{"dx":180,"dy":111.5,"t":14056},{"dx":180,"dy":111.5,"t":14133},{"dx":180,"dy":111.5,"t":14207},{"dx":180,"dy":111.5,"t":14284},{"dx":180,"dy":111.5,"t":14365},{"dx":180,"dy":111.5,"t":14440},{"dx":180,"dy":111.5,"t":14520},{"dx":180,"dy":111.5,"t":14595},{"dx":180,"dy":111.5,"t":14667},{"dx":180,"dy":111.5,"t":14741},{"dx":180,"dy":111.5,"t":14823},{"dx":180,"dy":111.5,"t":14893},{"dx":180,"dy":111.5,"t":14968},{"dx":180,"dy":111.5,"t":15043},{"dx":180,"dy":111.5,"t":15129},{"dx":180,"dy":111.5,"t":15205}],[{"dx":-180,"dy":111.5,"t":16203},{"dx":-180,"dy":111.5,"t":16289},{"dx":-180,"dy":111.5,"t":16370},{"dx":-180,"dy":111.5,"t":16446},{"dx":-180,"dy":111.5,"t":16526},{"dx":-180,"dy":111.5,"t":16599},{"dx":-180,"dy":111.5,"t":16692},{"dx":-180,"dy":111.5,"t":16766},{"dx":-180,"dy":111.5,"t":16841},{"dx":-180,"dy":111.5,"t":16922},{"dx":-180,"dy":111.5,"t":16995},{"dx":-180,"dy":111.5,"t":17068},{"dx":-180,"dy":111.5,"t":17146},{"dx":-180,"dy":111.5,"t":17223},{"dx":-180,"dy":111.5,"t":17294},{"dx":-180,"dy":111.5,"t":17376},{"dx":-180,"dy":111.5,"t":17454},{"dx":-180,"dy":111.5,"t":17526},{"dx":-180,"dy":111.5,"t":17606},{"dx":-180,"dy":111.5,"t":17682},{"dx":-180,"dy":111.5,"t":17755},{"dx":-180,"dy":111.5,"t":17832},{"dx":-180,"dy":111.5,"t":17904},{"dx":-180,"dy":111.5,"t":17974},{"dx":-180,"dy":111.5,"t":18056},{"dx":-180,"dy":111.5,"t":18127},{"dx":-180,"dy":111.5,"t":18202}],[{"dx":504,"dy":-316,"t":19241},{"dx":504,"dy":-316,"t":19318},{"dx":504,"dy":-316,"t":19396},{"dx":504,"dy":-316,"t":19476},{"dx":504,"dy":-316,"t":19553},{"dx":504,"dy":-316,"t":19637},{"dx":504,"dy":-316,"t":19714},{"dx":504,"dy":-316,"t":19789},{"dx":504,"dy":-316,"t":19863},{"dx":504,"dy":-316,"t":19945},{"dx":504,"dy":-316,"t":20024},{"dx":504,"dy":-316,"t":20097},{"dx":504,"dy":-316,"t":20175},{"dx":504,"dy":-316,"t":20251},{"dx":504,"dy":-316,"t":20328},{"dx":504,"dy":-316,"t":20417},{"dx":504,"dy":-316,"t":20491},{"dx":504,"dy":-316,"t":20569},{"dx":504,"dy":-316,"t":20645},{"dx":504,"dy":-316,"t":20729},{"dx":504,"dy":-316,"t":20806},{"dx":504,"dy":-316,"t":20880},{"dx":504,"dy":-316,"t":20954},{"dx":504,"dy":-316,"t":21037},{"dx":504,"dy":-316,"t":21111},{"dx":504,"dy":-316,"t":21188},{"dx":504,"dy":-316,"t":21271}],[{"dx":-504,"dy":314,"t":22312},{"dx":-504,"dy":314,"t":22393},{"dx":-504,"dy":314,"t":22470},{"dx":-504,"dy":314,"t":22546},{"dx":-504,"dy":314,"t":22624},{"dx":-504,"dy":314,"t":22708},{"dx":-504,"dy":314,"t":22785},{"dx":-504,"dy":314,"t":22860},{"dx":-504,"dy":314,"t":22944},{"dx":-504,"dy":314,"t":23017},{"dx":-504,"dy":314,"t":23099},{"dx":-504,"dy":314,"t":23185},{"dx":-504,"dy":314,"t":23261},{"dx":-504,"dy":314,"t":23333},{"dx":-504,"dy":314,"t":23413},{"dx":-504,"dy":314,"t":23488},{"dx":-504,"dy":314,"t":23566},{"dx":-504,"dy":314,"t":23654},{"dx":-504,"dy":314,"t":23725},{"dx":-504,"dy":314,"t":23799},{"dx":-504,"dy":314,"t":23874},{"dx":-504,"dy":314,"t":23945},{"dx":-504,"dy":314,"t":24028},{"dx":-504,"dy":314,"t":24102},{"dx":-504,"dy":314,"t":24179},{"dx":-504,"dy":314,"t":24266},{"dx":-504,"dy":314,"t":24341}],[{"dx":504,"dy":314,"t":25363},{"dx":504,"dy":314,"t":25444},{"dx":504,"dy":314,"t":25517},{"dx":504,"dy":314,"t":25594},{"dx":504,"dy":314,"t":25675},{"dx":504,"dy":314,"t":25747},{"dx":504,"dy":314,"t":25824},{"dx":504,"dy":314,"t":25908},{"dx":504,"dy":314,"t":25978},{"dx":504,"dy":314,"t":26053},{"dx":504,"dy":314,"t":26127},{"dx":504,"dy":314,"t":26202},{"dx":504,"dy":314,"t":26274},{"dx":504,"dy":314,"t":26357},{"dx":504,"dy":314,"t":26443},{"dx":504,"dy":314,"t":26519},{"dx":504,"dy":314,"t":26603},{"dx":504,"dy":314,"t":26678},{"dx":504,"dy":314,"t":26759},{"dx":504,"dy":314,"t":26836},{"dx":504,"dy":314,"t":26910},{"dx":504,"dy":314,"t":27005},{"dx":504,"dy":314,"t":27077},{"dx":504,"dy":314,"t":27148},{"dx":504,"dy":314,"t":27225},{"dx":504,"dy":314,"t":27304},{"dx":504,"dy":314,"t":27381}],[{"dx":-360,"dy":-226,"t":28409},{"dx":-360,"dy":-226,"t":28484},{"dx":-360,"dy":-226,"t":28575},{"dx":-360,"dy":-226,"t":28680},{"dx":-360,"dy":-226,"t":28752},{"dx":-360,"dy":-226,"t":28819},{"dx":-360,"dy":-226,"t":28895},{"dx":-360,"dy":-226,"t":28969},{"dx":-360,"dy":-226,"t":29040},{"dx":-360,"dy":-226,"t":29118},{"dx":-360,"dy":-226,"t":29190},{"dx":-360,"dy":-226,"t":29272},{"dx":-360,"dy":-226,"t":29348},{"dx":-360,"dy":-226,"t":29424},{"dx":-360,"dy":-226,"t":29499},{"dx":-360,"dy":-226,"t":29576},{"dx":-360,"dy":-226,"t":29653},{"dx":-360,"dy":-226,"t":29732},{"dx":-360,"dy":-226,"t":29808},{"dx":-360,"dy":-226,"t":29879},{"dx":-360,"dy":-226,"t":29959},{"dx":-360,"dy":-226,"t":30039},{"dx":-360,"dy":-226,"t":30108},{"dx":-360,"dy":-226,"t":30183},{"dx":-360,"dy":-226,"t":30257},{"dx":-360,"dy":-226,"t":30337},{"dx":-360,"dy":-226,"t":30421}],[{"dx":360,"dy":224,"t":31450},{"dx":360,"dy":224,"t":31529},{"dx":360,"dy":224,"t":31607},{"dx":360,"dy":224,"t":31682},{"dx":360,"dy":224,"t":31762},{"dx":360,"dy":224,"t":31839},{"dx":360,"dy":224,"t":31911},{"dx":360,"dy":224,"t":31990},{"dx":360,"dy":224,"t":32060},{"dx":360,"dy":224,"t":32134},{"dx":360,"dy":224,"t":32213},{"dx":360,"dy":224,"t":32286},{"dx":360,"dy":224,"t":32355},{"dx":360,"dy":224,"t":32435},{"dx":360,"dy":224,"t":32508},{"dx":360,"dy":224,"t":32577},{"dx":360,"dy":224,"t":32662},{"dx":360,"dy":224,"t":32743},{"dx":360,"dy":224,"t":32816},{"dx":360,"dy":224,"t":32897},{"dx":360,"dy":224,"t":32975},{"dx":360,"dy":224,"t":33050},{"dx":360,"dy":224,"t":33127},{"dx":360,"dy":224,"t":33206},{"dx":360,"dy":224,"t":33283},{"dx":360,"dy":224,"t":33377},{"dx":360,"dy":224,"t":33453}],[{"dx":-504,"dy":-316,"t":34465},{"dx":-504,"dy":-316,"t":34538},{"dx":-504,"dy":-316,"t":34616},{"dx":-504,"dy":-316,"t":34693},{"dx":-504,"dy":-316,"t":34771},{"dx":-504,"dy":-316,"t":34841},{"dx":-504,"dy":-316,"t":34921},{"dx":-504,"dy":-316,"t":34994},{"dx":-504,"dy":-316,"t":35075},{"dx":-504,"dy":-316,"t":35153},{"dx":-504,"dy":-316,"t":35224},{"dx":-504,"dy":-316,"t":35297},{"dx":-504,"dy":-316,"t":35382},{"dx":-504,"dy":-316,"t":35452},{"dx":-504,"dy":-316,"t":35529},{"dx":-504,"dy":-316,"t":35609},{"dx":-504,"dy":-316,"t":35686},{"dx":-504,"dy":-316,"t":35764},{"dx":-504,"dy":-316,"t":35842},{"dx":-504,"dy":-316,"t":35916},{"dx":-504,"dy":-316,"t":35991},{"dx":-504,"dy":-316,"t":36065},{"dx":-504,"dy":-316,"t":36141},{"dx":-504,"dy":-316,"t":36216},{"dx":-504,"dy":-316,"t":36286},{"dx":-504,"dy":-316,"t":36358},{"dx":-504,"dy":-316,"t":36440},{"dx":-504,"dy":-316,"t":36512}],[{"dx":-360,"dy":224,"t":37523},{"dx":-360,"dy":224,"t":37606},{"dx":-360,"dy":224,"t":37682},{"dx":-360,"dy":224,"t":37755},{"dx":-360,"dy":224,"t":37832},{"dx":-360,"dy":224,"t":37914},{"dx":-360,"dy":224,"t":37995},{"dx":-360,"dy":224,"t":38076},{"dx":-360,"dy":224,"t":38148},{"dx":-360,"dy":224,"t":38227},{"dx":-360,"dy":224,"t":38308},{"dx":-360,"dy":224,"t":38381},{"dx":-360,"dy":224,"t":38472},{"dx":-360,"dy":224,"t":38548},{"dx":-360,"dy":224,"t":38627},{"dx":-360,"dy":224,"t":38707},{"dx":-360,"dy":224,"t":38784},{"dx":-360,"dy":224,"t":38855},{"dx":-360,"dy":224,"t":38934},{"dx":-360,"dy":224,"t":39011},{"dx":-360,"dy":224,"t":39082},{"dx":-360,"dy":224,"t":39158},{"dx":-360,"dy":224,"t":39235},{"dx":-360,"dy":224,"t":39316},{"dx":-360,"dy":224,"t":39393},{"dx":-360,"dy":224,"t":39468}]],"percent_in_roi":[0,100,0,0,0,0,0,0,0,0,0,0,0],"average_offset":[{"x":179.62962962962962,"y":-113.61111111111111,"r":0.3866780188485499},{"x":0,"y":-1,"r":0},{"x":-180,"y":-113.5,"r":0},{"x":360,"y":-226,"r":0},{"x":180,"y":111.5,"r":0},{"x":-180,"y":111.5,"r":0},{"x":504,"y":-316,"r":0},{"x":-504,"y":314,"r":0},{"x":504,"y":314,"r":0},{"x":-360,"y":-226,"r":0},{"x":360,"y":224,"r":0},{"x":-504,"y":-316,"r":0},{"x":-360,"y":224,"r":0}],"samples_per_sec":"12.90","clicks":15,"pattern":"spread","trial_type":"webgazer-validate","trial_index":49,"time_elapsed":640042,"internal_node_id":"0.0-10.0-3.6","validation_points":[[37.5,62.5],[50,50],[62.5,62.5],[25,75],[37.5,37.5],[62.5,37.5],[15,85],[85,15],[15,15],[75,75],[25,25],[85,85],[75,25]],"user_agent":"Mozilla/5.0 (Macintosh; Intel Mac OS X 10_15_6) AppleWebKit/605.1.15 (KHTML, like Gecko) Version/14.0.3 Safari/605.1.15","screen_width_px":1440,"screen_height_px":900},{"rt":1527,"stimulus":"\n      <p>Round complete.</p>\n      <p>You can move a little bit, but please try to return you head to the same general location before continuing.</p>\n    ","response":0,"trial_type":"html-button-response","trial_index":50,"time_elapsed":641571,"internal_node_id":"0.0-10.0-4.6","user_agent":"Mozilla/5.0 (Macintosh; Intel Mac OS X 10_15_6) AppleWebKit/605.1.15 (KHTML, like Gecko) Version/14.0.3 Safari/605.1.15","screen_width_px":1440,"screen_height_px":900},{"tria