[{"rt":3190.510000102222,"stimulus":"\n      <p>You can elect whether to include your data in our research dataset.</p>\n    ","response":0,"question":"consent","trial_type":"html-button-response","trial_index":0,"time_elapsed":3202,"internal_node_id":"0.0-0.0","user_agent":"Mozilla/5.0 (Macintosh; Intel Mac OS X 10_13_6) AppleWebKit/537.36 (KHTML, like Gecko) Chrome/87.0.4280.141 Safari/537.36","screen_width_px":1440,"screen_height_px":900},{"rt":6720.664999913424,"stimulus":"\n      <p>This experiment uses your camera for eye tracking.</p>\n      <p>No video is saved from this experiment. The only data recorded are predictions about where you are looking.</p>\n      <p>Before we begin, there are a few things to do that can improve the accuracy of the eye tracking.</p>\n    ","response":0,"trial_type":"html-button-response","trial_index":1,"time_elapsed":9924,"internal_node_id":"0.0-1.0","user_agent":"Mozilla/5.0 (Macintosh; Intel Mac OS X 10_13_6) AppleWebKit/537.36 (KHTML, like Gecko) Chrome/87.0.4280.141 Safari/537.36","screen_width_px":1440,"screen_height_px":900},{"rt":1492.6400003023446,"stimulus":"\n      <p>If you wear glasses and can complete the task without them, please remove your glasses.</p>\n    ","response":0,"trial_type":"html-button-response","trial_index":2,"time_elapsed":11418,"internal_node_id":"0.0-2.0","user_agent":"Mozilla/5.0 (Macintosh; Intel Mac OS X 10_13_6) AppleWebKit/537.36 (KHTML, like Gecko) Chrome/87.0.4280.141 Safari/537.36","screen_width_px":1440,"screen_height_px":900},{"rt":1805.265000090003,"stimulus":"\n      <p>Please close additional browser tabs and apps running in the background.<br>The eye tracker works best when there are fewer things running at the same time.</p>\n    ","response":0,"trial_type":"html-button-response","trial_index":3,"time_elapsed":13224,"internal_node_id":"0.0-3.0","user_agent":"Mozilla/5.0 (Macintosh; Intel Mac OS X 10_13_6) AppleWebKit/537.36 (KHTML, like Gecko) Chrome/87.0.4280.141 Safari/537.36","screen_width_px":1440,"screen_height_px":900},{"rt":4511.500000022352,"stimulus":"\n      <p>Try to avoid bright lights behind you.<br>The eye tracker works best if your face is well lit from the front.<br>If you can, adjust the lighting in your room.</p>\n    ","response":0,"trial_type":"html-button-response","trial_index":4,"time_elapsed":17737,"internal_node_id":"0.0-4.0","user_agent":"Mozilla/5.0 (Macintosh; Intel Mac OS X 10_13_6) AppleWebKit/537.36 (KHTML, like Gecko) Chrome/87.0.4280.141 Safari/537.36","screen_width_px":1440,"screen_height_px":900},{"rt":947.5249997340143,"stimulus":"\n      <p>In order to participate you must allow the experiment to use your camera.</p>\n      <p>You will be prompted to do this on the next screen.</p>\n    ","response":0,"trial_type":"html-button-response","trial_index":5,"time_elapsed":18685,"internal_node_id":"0.0-5.0","user_agent":"Mozilla/5.0 (Macintosh; Intel Mac OS X 10_13_6) AppleWebKit/537.36 (KHTML, like Gecko) Chrome/87.0.4280.141 Safari/537.36","screen_width_px":1440,"screen_height_px":900},{"trial_type":"webgazer-init-camera","trial_index":6,"time_elapsed":32472,"internal_node_id":"0.0-6.0","user_agent":"Mozilla/5.0 (Macintosh; Intel Mac OS X 10_13_6) AppleWebKit/537.36 (KHTML, like Gecko) Chrome/87.0.4280.141 Safari/537.36","screen_width_px":1440,"screen_height_px":900},{"rt":3222.089999821037,"stimulus":"\n      <p>Now you'll complete a series of calibrations and validations.</p>\n      <p>The calibration will be reset after each round, so it is OK to move a little bit<br>in between the end of a validation and the start of the next calibration.</p>\n      <p>Please keep your head still during each round.</p>\n    ","response":0,"trial_type":"html-button-response","trial_index":7,"time_elapsed":35696,"internal_node_id":"0.0-7.0","user_agent":"Mozilla/5.0 (Macintosh; Intel Mac OS X 10_13_6) AppleWebKit/537.36 (KHTML, like Gecko) Chrome/87.0.4280.141 Safari/537.36","screen_width_px":1440,"screen_height_px":900},{"success":true,"trial_type":"fullscreen","trial_index":8,"time_elapsed":38624,"internal_node_id":"0.0-8.0","user_agent":"Mozilla/5.0 (Macintosh; Intel Mac OS X 10_13_6) AppleWebKit/537.36 (KHTML, like Gecko) Chrome/87.0.4280.141 Safari/537.36","screen_width_px":1440,"screen_height_px":900},{"rt":1359.0249996632338,"stimulus":"\n      <p>During the calibration phase, please look at each dot and click on it.</p>\n      <p>During the validation phase, just look at each dot while it is on the screen.</p>\n    ","response":0,"trial_type":"html-button-response","trial_index":9,"time_elapsed":39984,"internal_node_id":"0.0-9.0","user_agent":"Mozilla/5.0 (Macintosh; Intel Mac OS X 10_13_6) AppleWebKit/537.36 (KHTML, like Gecko) Chrome/87.0.4280.141 Safari/537.36","screen_width_px":1440,"screen_height_px":900},{"rt":1029.6000000089407,"stimulus":"\n      <p>Calibration phase next.</p>\n      <p>Click on the dots.</p>\n    ","response":0,"trial_type":"html-button-response","trial_index":10,"time_elapsed":41015,"internal_node_id":"0.0-10.0-0.0","user_agent":"Mozilla/5.0 (Macintosh; Intel Mac OS X 10_13_6) AppleWebKit/537.36 (KHTML, like Gecko) Chrome/87.0.4280.141 Safari/537.36","screen_width_px":1440,"screen_height_px":900},{"trial_type":"webgazer-calibrate","trial_index":11,"time_elapsed":60040,"internal_node_id":"0.0-10.0-1.0","user_agent":"Mozilla/5.0 (Macintosh; Intel Mac OS X 10_13_6) AppleWebKit/537.36 (KHTML, like Gecko) Chrome/87.0.4280.141 Safari/537.36","screen_width_px":1440,"screen_height_px":900},{"rt":957.2149999439716,"stimulus":"\n      <p>Validation phase next.</p>\n      <p>Look at the dots.</p>\n    ","response":0,"trial_type":"html-button-response","trial_index":12,"time_elapsed":60998,"internal_node_id":"0.0-10.0-2.0","user_agent":"Mozilla/5.0 (Macintosh; Intel Mac OS X 10_13_6) AppleWebKit/537.36 (KHTML, like Gecko) Chrome/87.0.4280.141 Safari/537.36","screen_width_px":1440,"screen_height_px":900},{"raw_gaze":[[{"dx":-12,"dy":116.5,"t":1102},{"dx":-13,"dy":114.5,"t":1165},{"dx":3,"dy":77.5,"t":1200},{"dx":26,"dy":116.5,"t":1259},{"dx":22,"dy":132.5,"t":1294},{"dx":101,"dy":152.5,"t":1356},{"dx":145,"dy":178.5,"t":1389},{"dx":123,"dy":188.5,"t":1446},{"dx":150,"dy":208.5,"t":1479},{"dx":192,"dy":255.5,"t":1535},{"dx":244,"dy":296.5,"t":1576},{"dx":148,"dy":255.5,"t":1634},{"dx":131,"dy":233.5,"t":1667},{"dx":57,"dy":165.5,"t":1723},{"dx":44,"dy":121.5,"t":1756},{"dx":-15,"dy":117.5,"t":1816},{"dx":-36,"dy":114.5,"t":1870},{"dx":-134,"dy":89.5,"t":1936},{"dx":-189,"dy":85.5,"t":1970},{"dx":-189,"dy":66.5,"t":2032},{"dx":-224,"dy":50.5,"t":2072},{"dx":-176,"dy":51.5,"t":2129},{"dx":-160,"dy":84.5,"t":2164},{"dx":-144,"dy":114.5,"t":2225},{"dx":-122,"dy":100.5,"t":2260},{"dx":-61,"dy":61.5,"t":2316},{"dx":-60,"dy":43.5,"t":2350},{"dx":-94,"dy":67.5,"t":2404},{"dx":-142,"dy":84.5,"t":2436},{"dx":-149,"dy":103.5,"t":2493},{"dx":-166,"dy":123.5,"t":2529},{"dx":-50,"dy":86.5,"t":2591},{"dx":-24,"dy":73.5,"t":2633},{"dx":26,"dy":48.5,"t":2691},{"dx":39,"dy":35.5,"t":2723},{"dx":17,"dy":15.5,"t":2779},{"dx":17,"dy":15.5,"t":2810},{"dx":-38,"dy":89.5,"t":2867},{"dx":-68,"dy":93.5,"t":2903},{"dx":-72,"dy":114.5,"t":2968},{"dx":-80,"dy":122.5,"t":3000},{"dx":-35,"dy":128.5,"t":3062},{"dx":-18,"dy":134.5,"t":3075}],[{"dx":20,"dy":14.5,"t":4090},{"dx":46,"dy":66.5,"t":4156},{"dx":84,"dy":93.5,"t":4196},{"dx":78,"dy":78.5,"t":4255},{"dx":114,"dy":71.5,"t":4292},{"dx":47,"dy":26.5,"t":4351},{"dx":33,"dy":12.5,"t":4384},{"dx":-45,"dy":92.5,"t":4439},{"dx":-80,"dy":172.5,"t":4476},{"dx":-152,"dy":216.5,"t":4533},{"dx":-143,"dy":199.5,"t":4568},{"dx":-121,"dy":202.5,"t":4633},{"dx":-92,"dy":204.5,"t":4669},{"dx":-81,"dy":167.5,"t":4724},{"dx":-55,"dy":133.5,"t":4758},{"dx":-92,"dy":128.5,"t":4815},{"dx":-107,"dy":126.5,"t":4847},{"dx":-124,"dy":109.5,"t":4900},{"dx":-86,"dy":94.5,"t":4932},{"dx":-68,"dy":75.5,"t":4989},{"dx":-27,"dy":76.5,"t":5033},{"dx":-12,"dy":51.5,"t":5133},{"dx":14,"dy":21.5,"t":5172},{"dx":4,"dy":13.5,"t":5228},{"dx":12,"dy":2.5,"t":5265},{"dx":11,"dy":13.5,"t":5332},{"dx":19,"dy":13.5,"t":5371},{"dx":-33,"dy":62.5,"t":5429},{"dx":-42,"dy":82.5,"t":5462},{"dx":-51,"dy":100.5,"t":5521},{"dx":-58,"dy":98.5,"t":5566},{"dx":-87,"dy":62.5,"t":5648},{"dx":-85,"dy":33.5,"t":5688},{"dx":-76,"dy":64.5,"t":5748},{"dx":-47,"dy":83.5,"t":5794},{"dx":-46,"dy":78.5,"t":5855},{"dx":-28,"dy":87.5,"t":5892},{"dx":-88,"dy":58.5,"t":5950},{"dx":-113,"dy":37.5,"t":5996},{"dx":-108,"dy":70.5,"t":6059},{"dx":-105,"dy":82.5,"t":6104},{"dx":-122,"dy":87.5,"t":6138}],[{"dx":-83,"dy":-43.5,"t":7150},{"dx":-81,"dy":-29.5,"t":7209},{"dx":-97,"dy":-27.5,"t":7246},{"dx":-145,"dy":-10.5,"t":7314},{"dx":-174,"dy":2.5,"t":7357},{"dx":-173,"dy":20.5,"t":7419},{"dx":-151,"dy":26.5,"t":7456},{"dx":-131,"dy":62.5,"t":7516},{"dx":-132,"dy":89.5,"t":7561},{"dx":-117,"dy":122.5,"t":7635},{"dx":-105,"dy":129.5,"t":7671},{"dx":-95,"dy":129.5,"t":7725},{"dx":-91,"dy":130.5,"t":7759},{"dx":-87,"dy":127.5,"t":7816},{"dx":-87,"dy":125.5,"t":7851},{"dx":-65,"dy":98.5,"t":7910},{"dx":-58,"dy":91.5,"t":7947},{"dx":-71,"dy":84.5,"t":8013},{"dx":-81,"dy":88.5,"t":8053},{"dx":-93,"dy":80.5,"t":8114},{"dx":-108,"dy":70.5,"t":8149},{"dx":-94,"dy":86.5,"t":8211},{"dx":-65,"dy":104.5,"t":8251},{"dx":-18,"dy":62.5,"t":8306},{"dx":-5,"dy":39.5,"t":8338},{"dx":34,"dy":20.5,"t":8395},{"dx":59,"dy":12.5,"t":8427},{"dx":53,"dy":30.5,"t":8485},{"dx":36,"dy":46.5,"t":8519},{"dx":10,"dy":51.5,"t":8581},{"dx":-3,"dy":43.5,"t":8626},{"dx":-7,"dy":30.5,"t":8685},{"dx":5,"dy":29.5,"t":8720},{"dx":-38,"dy":38.5,"t":8781},{"dx":-58,"dy":48.5,"t":8818},{"dx":-42,"dy":93.5,"t":8878},{"dx":-29,"dy":122.5,"t":8912},{"dx":16,"dy":84.5,"t":8976},{"dx":29,"dy":61.5,"t":9010},{"dx":10,"dy":64.5,"t":9064},{"dx":7,"dy":70.5,"t":9100},{"dx":-7,"dy":62.5,"t":9135}],[{"dx":6,"dy":-119,"t":10128},{"dx":-19,"dy":-118,"t":10184},{"dx":-40,"dy":-116,"t":10229},{"dx":-61,"dy":-108,"t":10284},{"dx":-63,"dy":-103,"t":10328},{"dx":-51,"dy":-104,"t":10387},{"dx":-59,"dy":-116,"t":10418},{"dx":-65,"dy":-93,"t":10478},{"dx":-47,"dy":-83,"t":10513},{"dx":-47,"dy":-60,"t":10572},{"dx":-48,"dy":-49,"t":10611},{"dx":-51,"dy":-36,"t":10667},{"dx":-55,"dy":-33,"t":10699},{"dx":-63,"dy":-44,"t":10753},{"dx":-70,"dy":-60,"t":10789},{"dx":-74,"dy":-69,"t":10847},{"dx":-74,"dy":-69,"t":10881},{"dx":-90,"dy":-73,"t":10938},{"dx":-104,"dy":-77,"t":10971},{"dx":-79,"dy":-70,"t":11024},{"dx":-60,"dy":-70,"t":11055},{"dx":-18,"dy":-73,"t":11113},{"dx":-2,"dy":-75,"t":11145},{"dx":5,"dy":-45,"t":11211},{"dx":-9,"dy":-34,"t":11247},{"dx":-23,"dy":-38,"t":11304},{"dx":-25,"dy":-36,"t":11347},{"dx":-47,"dy":-41,"t":11406},{"dx":-48,"dy":-41,"t":11439},{"dx":-43,"dy":-47,"t":11498},{"dx":-37,"dy":-54,"t":11532},{"dx":-38,"dy":-49,"t":11588},{"dx":-37,"dy":-53,"t":11619},{"dx":-91,"dy":-53,"t":11692},{"dx":-115,"dy":-42,"t":11727},{"dx":-240,"dy":14,"t":11780},{"dx":-328,"dy":63,"t":11814},{"dx":-459,"dy":113,"t":11879},{"dx":-497,"dy":133,"t":11919},{"dx":-555,"dy":204,"t":11973},{"dx":-612,"dy":226,"t":12017},{"dx":-637,"dy":277,"t":12074},{"dx":-636,"dy":299,"t":12133},{"dx":-636,"dy":315,"t":12169}],[{"dx":174,"dy":242,"t":13132},{"dx":150,"dy":223,"t":13197},{"dx":130,"dy":204,"t":13232},{"dx":95,"dy":189,"t":13289},{"dx":66,"dy":183,"t":13325},{"dx":9,"dy":142,"t":13384},{"dx":-9,"dy":124,"t":13418},{"dx":-33,"dy":96,"t":13474},{"dx":-42,"dy":80,"t":13512},{"dx":-53,"dy":74,"t":13567},{"dx":-55,"dy":79,"t":13603},{"dx":-68,"dy":91,"t":13660},{"dx":-77,"dy":97,"t":13692},{"dx":-82,"dy":120,"t":13746},{"dx":-80,"dy":136,"t":13779},{"dx":-20,"dy":132,"t":13835},{"dx":14,"dy":134,"t":13889},{"dx":27,"dy":156,"t":13943},{"dx":32,"dy":168,"t":13980},{"dx":30,"dy":169,"t":14037},{"dx":26,"dy":162,"t":14074},{"dx":28,"dy":150,"t":14134},{"dx":34,"dy":145,"t":14170},{"dx":44,"dy":110,"t":14232},{"dx":41,"dy":89,"t":14268},{"dx":20,"dy":77,"t":14322},{"dx":-1,"dy":70,"t":14357},{"dx":-15,"dy":74,"t":14413},{"dx":-9,"dy":77,"t":14444},{"dx":-4,"dy":58,"t":14503},{"dx":-3,"dy":56,"t":14538},{"dx":31,"dy":76,"t":14598},{"dx":57,"dy":71,"t":14636},{"dx":88,"dy":85,"t":14698},{"dx":104,"dy":88,"t":14736},{"dx":82,"dy":107,"t":14797},{"dx":67,"dy":118,"t":14831},{"dx":95,"dy":154,"t":14901},{"dx":115,"dy":148,"t":14933},{"dx":57,"dy":140,"t":14989},{"dx":7,"dy":131,"t":15023},{"dx":-49,"dy":136,"t":15078},{"dx":-60,"dy":147,"t":15114},{"dx":-21,"dy":108,"t":15153}],[{"dx":-148,"dy":63,"t":16161},{"dx":-159,"dy":60,"t":16226},{"dx":-185,"dy":59,"t":16262},{"dx":-237,"dy":58,"t":16323},{"dx":-262,"dy":60,"t":16365},{"dx":-279,"dy":62,"t":16434},{"dx":-276,"dy":61,"t":16470},{"dx":-307,"dy":70,"t":16528},{"dx":-324,"dy":80,"t":16565},{"dx":-307,"dy":76,"t":16634},{"dx":-295,"dy":77,"t":16670},{"dx":-297,"dy":71,"t":16728},{"dx":-294,"dy":66,"t":16763},{"dx":-294,"dy":73,"t":16823},{"dx":-291,"dy":72,"t":16876},{"dx":-276,"dy":82,"t":16931},{"dx":-255,"dy":90,"t":16965},{"dx":-264,"dy":90,"t":17033},{"dx":-264,"dy":95,"t":17066},{"dx":-284,"dy":74,"t":17129},{"dx":-299,"dy":67,"t":17160},{"dx":-313,"dy":53,"t":17224},{"dx":-336,"dy":50,"t":17259},{"dx":-351,"dy":47,"t":17324},{"dx":-357,"dy":54,"t":17360},{"dx":-353,"dy":46,"t":17417},{"dx":-350,"dy":43,"t":17451},{"dx":-339,"dy":64,"t":17518},{"dx":-336,"dy":68,"t":17551},{"dx":-357,"dy":75,"t":17607},{"dx":-359,"dy":80,"t":17640},{"dx":-268,"dy":86,"t":17695},{"dx":-212,"dy":90,"t":17736},{"dx":-169,"dy":80,"t":17792},{"dx":-166,"dy":67,"t":17827},{"dx":-160,"dy":66,"t":17893},{"dx":-164,"dy":73,"t":17929},{"dx":-206,"dy":80,"t":17984},{"dx":-216,"dy":78,"t":18016},{"dx":-247,"dy":79,"t":18081},{"dx":-251,"dy":76,"t":18138},{"dx":-264,"dy":67,"t":18171}],[{"dx":-170,"dy":-135,"t":19159},{"dx":-71,"dy":-148,"t":19244},{"dx":-43,"dy":-142,"t":19277},{"dx":-5,"dy":-130,"t":19331},{"dx":4,"dy":-115,"t":19373},{"dx":-18,"dy":-68,"t":19432},{"dx":-59,"dy":-30,"t":19470},{"dx":-103,"dy":-2,"t":19526},{"dx":-112,"dy":1,"t":19560},{"dx":-114,"dy":-11,"t":19629},{"dx":-123,"dy":-30,"t":19661},{"dx":-147,"dy":3,"t":19718},{"dx":-152,"dy":17,"t":19759},{"dx":-141,"dy":54,"t":19817},{"dx":-130,"dy":62,"t":19849},{"dx":-122,"dy":50,"t":19908},{"dx":-109,"dy":45,"t":19956},{"dx":-76,"dy":33,"t":20017},{"dx":-58,"dy":27,"t":20052},{"dx":-58,"dy":19,"t":20105},{"dx":-63,"dy":21,"t":20142},{"dx":-90,"dy":20,"t":20195},{"dx":-110,"dy":17,"t":20231},{"dx":-159,"dy":25,"t":20296},{"dx":-158,"dy":30,"t":20332},{"dx":-168,"dy":16,"t":20389},{"dx":-190,"dy":26,"t":20424},{"dx":-225,"dy":6,"t":20487},{"dx":-199,"dy":0,"t":20523},{"dx":-158,"dy":-24,"t":20589},{"dx":-166,"dy":-17,"t":20622},{"dx":-174,"dy":-21,"t":20686},{"dx":-198,"dy":-20,"t":20721},{"dx":-126,"dy":-35,"t":20786},{"dx":-105,"dy":-41,"t":20823},{"dx":-88,"dy":-11,"t":20884},{"dx":-113,"dy":7,"t":20919},{"dx":-141,"dy":-6,"t":20980},{"dx":-144,"dy":-15,"t":21017},{"dx":-153,"dy":-23,"t":21077},{"dx":-166,"dy":-25,"t":21110},{"dx":-97,"dy":-38,"t":21168},{"dx":-68,"dy":-34,"t":21182}],[{"dx":-30,"dy":73,"t":22196},{"dx":-88,"dy":43,"t":22256},{"dx":-118,"dy":25,"t":22290},{"dx":-140,"dy":17,"t":22355},{"dx":-169,"dy":8,"t":22396},{"dx":-174,"dy":15,"t":22451},{"dx":-176,"dy":3,"t":22490},{"dx":-153,"dy":66,"t":22549},{"dx":-148,"dy":90,"t":22597},{"dx":-137,"dy":138,"t":22653},{"dx":-145,"dy":136,"t":22686},{"dx":-136,"dy":177,"t":22745},{"dx":-132,"dy":194,"t":22785},{"dx":-112,"dy":187,"t":22848},{"dx":-110,"dy":193,"t":22884},{"dx":-142,"dy":127,"t":22944},{"dx":-164,"dy":76,"t":22978},{"dx":-195,"dy":92,"t":23034},{"dx":-215,"dy":94,"t":23068},{"dx":-123,"dy":133,"t":23121},{"dx":-96,"dy":159,"t":23154},{"dx":28,"dy":104,"t":23216},{"dx":127,"dy":84,"t":23253},{"dx":210,"dy":35,"t":23319},{"dx":219,"dy":17,"t":23351},{"dx":271,"dy":51,"t":23408},{"dx":285,"dy":57,"t":23444},{"dx":301,"dy":90,"t":23507},{"dx":304,"dy":114,"t":23542},{"dx":205,"dy":32,"t":23603},{"dx":154,"dy":-23,"t":23638},{"dx":31,"dy":24,"t":23695},{"dx":22,"dy":44,"t":23736},{"dx":-44,"dy":36,"t":23796},{"dx":-76,"dy":5,"t":23830},{"dx":-82,"dy":42,"t":23885},{"dx":-80,"dy":61,"t":23921},{"dx":-78,"dy":101,"t":23982},{"dx":-71,"dy":101,"t":24021},{"dx":-40,"dy":108,"t":24084},{"dx":-6,"dy":113,"t":24117},{"dx":27,"dy":104,"t":24181},{"dx":59,"dy":75,"t":24195}],[{"dx":7,"dy":57,"t":25205},{"dx":-23,"dy":59,"t":25268},{"dx":-16,"dy":42,"t":25302},{"dx":-25,"dy":33,"t":25359},{"dx":-27,"dy":38,"t":25393},{"dx":-6,"dy":48,"t":25449},{"dx":13,"dy":52,"t":25482},{"dx":35,"dy":41,"t":25539},{"dx":46,"dy":12,"t":25574},{"dx":31,"dy":5,"t":25630},{"dx":28,"dy":-1,"t":25662},{"dx":-7,"dy":-2,"t":25715},{"dx":-31,"dy":-5,"t":25748},{"dx":-53,"dy":-27,"t":25803},{"dx":-60,"dy":-38,"t":25836},{"dx":8,"dy":-30,"t":25906},{"dx":34,"dy":-12,"t":25939},{"dx":79,"dy":3,"t":25995},{"dx":97,"dy":3,"t":26030},{"dx":96,"dy":-4,"t":26086},{"dx":111,"dy":-8,"t":26118},{"dx":134,"dy":-18,"t":26173},{"dx":142,"dy":-23,"t":26205},{"dx":92,"dy":-25,"t":26269},{"dx":76,"dy":-12,"t":26301},{"dx":55,"dy":-19,"t":26355},{"dx":26,"dy":-10,"t":26388},{"dx":-2,"dy":-6,"t":26443},{"dx":0,"dy":1,"t":26475},{"dx":-13,"dy":-7,"t":26535},{"dx":-11,"dy":-8,"t":26573},{"dx":11,"dy":-5,"t":26633},{"dx":32,"dy":-6,"t":26667},{"dx":10,"dy":4,"t":26723},{"dx":10,"dy":15,"t":26754},{"dx":6,"dy":35,"t":26811},{"dx":26,"dy":47,"t":26844},{"dx":37,"dy":26,"t":26915},{"dx":24,"dy":16,"t":26953},{"dx":31,"dy":-1,"t":27007},{"dx":30,"dy":-12,"t":27043},{"dx":12,"dy":-5,"t":27100},{"dx":7,"dy":-4,"t":27137},{"dx":-50,"dy":12,"t":27201},{"dx":-75,"dy":20,"t":27212}],[{"dx":-331,"dy":-14,"t":28233},{"dx":-361,"dy":-47,"t":28291},{"dx":-364,"dy":-57,"t":28326},{"dx":-366,"dy":-51,"t":28390},{"dx":-363,"dy":-56,"t":28426},{"dx":-357,"dy":-65,"t":28481},{"dx":-359,"dy":-64,"t":28514},{"dx":-348,"dy":-63,"t":28570},{"dx":-331,"dy":-75,"t":28603},{"dx":-341,"dy":-71,"t":28669},{"dx":-358,"dy":-65,"t":28703},{"dx":-365,"dy":-43,"t":28762},{"dx":-369,"dy":-52,"t":28801},{"dx":-379,"dy":-61,"t":28858},{"dx":-396,"dy":-58,"t":28903},{"dx":-382,"dy":-37,"t":28962},{"dx":-371,"dy":-31,"t":28994},{"dx":-336,"dy":-20,"t":29051},{"dx":-311,"dy":-16,"t":29083},{"dx":-313,"dy":-23,"t":29148},{"dx":-330,"dy":-25,"t":29188},{"dx":-312,"dy":-35,"t":29242},{"dx":-348,"dy":-38,"t":29273},{"dx":-334,"dy":-18,"t":29332},{"dx":-326,"dy":-18,"t":29365},{"dx":-301,"dy":-2,"t":29422},{"dx":-301,"dy":7,"t":29457},{"dx":-300,"dy":17,"t":29527},{"dx":-299,"dy":19,"t":29561},{"dx":-297,"dy":13,"t":29617},{"dx":-295,"dy":7,"t":29664},{"dx":-283,"dy":-16,"t":29722},{"dx":-283,"dy":-14,"t":29758},{"dx":-260,"dy":-5,"t":29816},{"dx":-244,"dy":-4,"t":29856},{"dx":-261,"dy":13,"t":29910},{"dx":-283,"dy":24,"t":29954},{"dx":-376,"dy":29,"t":30012},{"dx":-433,"dy":25,"t":30047},{"dx":-499,"dy":54,"t":30104},{"dx":-542,"dy":72,"t":30136},{"dx":-586,"dy":71,"t":30194},{"dx":-588,"dy":50,"t":30232},{"dx":-538,"dy":34,"t":30274}],[{"dx":-21,"dy":177.5,"t":31266},{"dx":-37,"dy":184.5,"t":31325},{"dx":-51,"dy":190.5,"t":31362},{"dx":-33,"dy":217.5,"t":31424},{"dx":-35,"dy":220.5,"t":31460},{"dx":-9,"dy":201.5,"t":31519},{"dx":-10,"dy":191.5,"t":31560},{"dx":-12,"dy":190.5,"t":31626},{"dx":-28,"dy":188.5,"t":31662},{"dx":-23,"dy":187.5,"t":31727},{"dx":-6,"dy":200.5,"t":31765},{"dx":17,"dy":205.5,"t":31825},{"dx":6,"dy":202.5,"t":31865},{"dx":-7,"dy":213.5,"t":31923},{"dx":-24,"dy":221.5,"t":31960},{"dx":-12,"dy":215.5,"t":32023},{"dx":-16,"dy":206.5,"t":32058},{"dx":9,"dy":165.5,"t":32116},{"dx":2,"dy":167.5,"t":32150},{"dx":-32,"dy":178.5,"t":32206},{"dx":-23,"dy":166.5,"t":32238},{"dx":2,"dy":152.5,"t":32292},{"dx":21,"dy":151.5,"t":32327},{"dx":26,"dy":159.5,"t":32383},{"dx":29,"dy":165.5,"t":32416},{"dx":12,"dy":170.5,"t":32470},{"dx":-6,"dy":170.5,"t":32501},{"dx":-20,"dy":168.5,"t":32555},{"dx":-20,"dy":166.5,"t":32587},{"dx":-39,"dy":160.5,"t":32641},{"dx":-27,"dy":148.5,"t":32677},{"dx":19,"dy":126.5,"t":32732},{"dx":43,"dy":109.5,"t":32764},{"dx":46,"dy":89.5,"t":32822},{"dx":57,"dy":65.5,"t":32857},{"dx":14,"dy":6.5,"t":32920},{"dx":41,"dy":-56.5,"t":32955},{"dx":50,"dy":-48.5,"t":33014},{"dx":80,"dy":-73.5,"t":33049},{"dx":84,"dy":-108.5,"t":33104},{"dx":103,"dy":-180.5,"t":33135},{"dx":93,"dy":-178.5,"t":33190},{"dx":102,"dy":-260.5,"t":33225},{"dx":76,"dy":-183.5,"t":33286},{"dx":106,"dy":-211.5,"t":33299}],[{"dx":22,"dy":348,"t":34318},{"dx":-184,"dy":438,"t":34378},{"dx":-292,"dy":477,"t":34415},{"dx":-377,"dy":544,"t":34472},{"dx":-368,"dy":540,"t":34505},{"dx":-400,"dy":455,"t":34560},{"dx":-439,"dy":423,"t":34595},{"dx":-308,"dy":312,"t":34650},{"dx":-253,"dy":245,"t":34682},{"dx":-143,"dy":193,"t":34737},{"dx":-137,"dy":147,"t":34768},{"dx":-111,"dy":123,"t":34823},{"dx":-146,"dy":113,"t":34860},{"dx":-161,"dy":176,"t":34920},{"dx":-197,"dy":204,"t":34955},{"dx":-147,"dy":247,"t":35013},{"dx":-142,"dy":275,"t":35053},{"dx":-171,"dy":247,"t":35109},{"dx":-216,"dy":242,"t":35155},{"dx":-150,"dy":195,"t":35213},{"dx":-132,"dy":207,"t":35245},{"dx":-42,"dy":226,"t":35300},{"dx":0,"dy":223,"t":35332},{"dx":30,"dy":209,"t":35386},{"dx":39,"dy":207,"t":35420},{"dx":-25,"dy":160,"t":35483},{"dx":-53,"dy":146,"t":35517},{"dx":-38,"dy":152,"t":35572},{"dx":-14,"dy":165,"t":35628},{"dx":9,"dy":185,"t":35685},{"dx":11,"dy":193,"t":35724},{"dx":36,"dy":225,"t":35781},{"dx":37,"dy":233,"t":35815},{"dx":70,"dy":240,"t":35873},{"dx":92,"dy":236,"t":35908},{"dx":73,"dy":221,"t":35975},{"dx":48,"dy":221,"t":36009},{"dx":25,"dy":218,"t":36072},{"dx":25,"dy":228,"t":36108},{"dx":31,"dy":244,"t":36163},{"dx":40,"dy":237,"t":36197},{"dx":19,"dy":233,"t":36251},{"dx":23,"dy":247,"t":36290},{"dx":18,"dy":259,"t":36326}],[{"dx":-150,"dy":-39,"t":37309},{"dx":-122,"dy":-46,"t":37370},{"dx":-95,"dy":-53,"t":37404},{"dx":2,"dy":-47,"t":37459},{"dx":30,"dy":-41,"t":37496},{"dx":46,"dy":-26,"t":37550},{"dx":38,"dy":-17,"t":37584},{"dx":41,"dy":-11,"t":37642},{"dx":41,"dy":-2,"t":37675},{"dx":45,"dy":-11,"t":37729},{"dx":41,"dy":-10,"t":37765},{"dx":60,"dy":45,"t":37819},{"dx":83,"dy":57,"t":37856},{"dx":112,"dy":71,"t":37915},{"dx":142,"dy":75,"t":37950},{"dx":149,"dy":104,"t":38011},{"dx":156,"dy":107,"t":38045},{"dx":165,"dy":109,"t":38102},{"dx":164,"dy":102,"t":38136},{"dx":111,"dy":81,"t":38191},{"dx":81,"dy":74,"t":38228},{"dx":49,"dy":54,"t":38282},{"dx":45,"dy":42,"t":38313},{"dx":60,"dy":45,"t":38373},{"dx":61,"dy":43,"t":38411},{"dx":58,"dy":58,"t":38475},{"dx":44,"dy":58,"t":38510},{"dx":45,"dy":63,"t":38570},{"dx":63,"dy":53,"t":38602},{"dx":52,"dy":49,"t":38656},{"dx":41,"dy":51,"t":38688},{"dx":17,"dy":70,"t":38744},{"dx":9,"dy":73,"t":38779},{"dx":7,"dy":80,"t":38836},{"dx":8,"dy":86,"t":38886},{"dx":49,"dy":123,"t":38942},{"dx":46,"dy":127,"t":38975},{"dx":51,"dy":131,"t":39031},{"dx":47,"dy":132,"t":39065},{"dx":36,"dy":140,"t":39121},{"dx":25,"dy":145,"t":39154},{"dx":52,"dy":130,"t":39208},{"dx":74,"dy":115,"t":39242},{"dx":79,"dy":83,"t":39301}]],"percent_in_roi":[53.48837209302325,76.19047619047619,76.19047619047619,79.54545454545455,65.9090909090909,0,62.7906976744186,39.53488372093023,100,0,20,0,86.36363636363636],"average_offset":[{"x":-22.930232558139537,"y":114.66279069767442,"r":100.0769876711447},{"x":-45.04761904761905,"y":85,"r":113.06422758604178},{"x":-55.523809523809526,"y":61.285714285714285,"r":104.11963731170272},{"x":-144.13636363636363,"y":-16.068181818181817,"r":172.6347355709824},{"x":21.40909090909091,"y":123.0909090909091,"r":92.4646144270839},{"x":-270.73809523809524,"y":69.71428571428571,"r":59.526195877953555},{"x":-117.81395348837209,"y":-14.930232558139535,"r":57.36474439414059},{"x":-26.441860465116278,"y":79.55813953488372,"r":127.28230760863222},{"x":21.044444444444444,"y":6.2444444444444445,"r":38.52034895935676},{"x":-357.27272727272725,"y":-16.113636363636363,"r":73.98841383640293},{"x":12.155555555555555,"y":106.74444444444444,"r":91.08479294686265},{"x":-90.86363636363636,"y":251.3409090909091,"r":181.60759836811178},{"x":49.04545454545455,"y":56.20454545454545,"r":100.05768909085208}],"samples_per_sec":"21.07","clicks":15,"pattern":"spread","trial_type":"webgazer-validate","trial_index":13,"time_elapsed":101315,"internal_node_id":"0.0-10.0-3.0","validation_points":[[37.5,37.5],[62.5,62.5],[62.5,37.5],[85,15],[25,75],[75,75],[15,15],[25,25],[50,50],[85,85],[37.5,62.5],[75,25],[15,85]],"user_agent":"Mozilla/5.0 (Macintosh; Intel Mac OS X 10_13_6) AppleWebKit/537.36 (KHTML, like Gecko) Chrome/87.0.4280.141 Safari/537.36","screen_width_px":1440,"screen_height_px":900},{"rt":1659.599999897182,"stimulus":"\n      <p>Round complete.</p>\n      <p>You can move a little bit, but please try to return you head to the same general location before continuing.</p>\n    ","response":0,"trial_type":"html-button-response","trial_index":14,"time_elapsed":102976,"internal_node_id":"0.0-10.0-4.0","user_agent":"Mozilla/5.0 (Macintosh; Intel Mac OS X 10_13_6) AppleWebKit/537.36 (KHTML, like Gecko) Chrome/87.0.4280.141 Safari/537.36","screen_width_px":1440,"screen_height_px":900},{"trial_type":"webgazer-init-camera","trial_index":15,"time_elapsed":111601,"internal_node_id":"0.0-10.0-5.0","user_agent":"Mozilla/5.0 (Macintosh; Intel Mac OS X 10_13_6) AppleWebKit/537.36 (KHTML, like Gecko) Chrome/87.0.4280.141 Safari/537.36","screen_width_px":1440,"screen_height_px":900},{"rt":3175.30500004068,"stimulus":"\n      <p>Calibration phase next.</p>\n      <p>Click on the dots.</p>\n    ","response":0,"trial_type":"html-button-response","trial_index":16,"time_elapsed":114778,"internal_node_id":"0.0-10.0-0.1","user_agent":"Mozilla/5.0 (Macintosh; Intel Mac OS X 10_13_6) AppleWebKit/537.36 (KHTML, like Gecko) Chrome/87.0.4280.141 Safari/537.36","screen_width_px":1440,"screen_height_px":900},{"trial_type":"webgazer-calibrate","trial_index":17,"time_elapsed":135342,"internal_node_id":"0.0-10.0-1.1","user_agent":"Mozilla/5.0 (Macintosh; Intel Mac OS X 10_13_6) AppleWebKit/537.36 (KHTML, like Gecko) Chrome/87.0.4280.141 Safari/537.36","screen_width_px":1440,"screen_height_px":900},{"rt":1167.7800002507865,"stimulus":"\n      <p>Validation phase next.</p>\n      <p>Look at the dots.</p>\n    ","response":0,"trial_type":"html-button-response","trial_index":18,"time_elapsed":136511,"internal_node_id":"0.0-10.0-2.1","user_agent":"Mozilla/5.0 (Macintosh; Intel Mac OS X 10_13_6) AppleWebKit/537.36 (KHTML, like Gecko) Chrome/87.0.4280.141 Safari/537.36","screen_width_px":1440,"screen_height_px":900},{"raw_gaze":[[{"dx":-372,"dy":196,"t":1069},{"dx":-345,"dy":350,"t":1137},{"dx":-320,"dy":482,"t":1173},{"dx":-384,"dy":571,"t":1240},{"dx":-422,"dy":527,"t":1277},{"dx":-458,"dy":456,"t":1340},{"dx":-470,"dy":411,"t":1399},{"dx":-497,"dy":358,"t":1465},{"dx":-514,"dy":336,"t":1502},{"dx":-418,"dy":291,"t":1562},{"dx":-377,"dy":278,"t":1599},{"dx":-288,"dy":282,"t":1664},{"dx":-253,"dy":280,"t":1701},{"dx":-201,"dy":258,"t":1761},{"dx":-194,"dy":242,"t":1799},{"dx":-205,"dy":258,"t":1858},{"dx":-186,"dy":258,"t":1893},{"dx":-141,"dy":270,"t":1951},{"dx":-116,"dy":274,"t":1994},{"dx":-159,"dy":329,"t":2050},{"dx":-188,"dy":348,"t":2081},{"dx":-254,"dy":362,"t":2141},{"dx":-252,"dy":363,"t":2177},{"dx":-244,"dy":386,"t":2231},{"dx":-248,"dy":404,"t":2267},{"dx":-208,"dy":372,"t":2323},{"dx":-233,"dy":377,"t":2362},{"dx":-201,"dy":384,"t":2417},{"dx":-179,"dy":380,"t":2448},{"dx":-205,"dy":314,"t":2501},{"dx":-231,"dy":324,"t":2544},{"dx":-206,"dy":314,"t":2603},{"dx":-208,"dy":318,"t":2641},{"dx":-219,"dy":340,"t":2699},{"dx":-233,"dy":331,"t":2735},{"dx":-240,"dy":315,"t":2790},{"dx":-236,"dy":307,"t":2825},{"dx":-193,"dy":260,"t":2879},{"dx":-177,"dy":254,"t":2909},{"dx":-157,"dy":277,"t":2963},{"dx":-156,"dy":253,"t":2998},{"dx":-168,"dy":192,"t":3054},{"dx":-187,"dy":167,"t":3089},{"dx":-212,"dy":185,"t":3124}],[{"dx":70,"dy":411,"t":4126},{"dx":95,"dy":394,"t":4182},{"dx":117,"dy":380,"t":4216},{"dx":135,"dy":318,"t":4273},{"dx":137,"dy":302,"t":4304},{"dx":118,"dy":281,"t":4370},{"dx":101,"dy":276,"t":4407},{"dx":102,"dy":276,"t":4462},{"dx":110,"dy":273,"t":4496},{"dx":127,"dy":272,"t":4563},{"dx":149,"dy":273,"t":4598},{"dx":77,"dy":277,"t":4655},{"dx":13,"dy":270,"t":4688},{"dx":-187,"dy":337,"t":4742},{"dx":-303,"dy":370,"t":4774},{"dx":-461,"dy":384,"t":4829},{"dx":-494,"dy":381,"t":4862},{"dx":-501,"dy":370,"t":4921},{"dx":-453,"dy":332,"t":4962},{"dx":-346,"dy":297,"t":5018},{"dx":-304,"dy":273,"t":5053},{"dx":-180,"dy":269,"t":5109},{"dx":-114,"dy":269,"t":5144},{"dx":-41,"dy":268,"t":5199},{"dx":-25,"dy":258,"t":5237},{"dx":-81,"dy":270,"t":5292},{"dx":-107,"dy":268,"t":5325},{"dx":-119,"dy":266,"t":5379},{"dx":-126,"dy":285,"t":5412},{"dx":-139,"dy":246,"t":5471},{"dx":-147,"dy":213,"t":5509},{"dx":-188,"dy":194,"t":5563},{"dx":-205,"dy":191,"t":5598},{"dx":-206,"dy":239,"t":5656},{"dx":-201,"dy":262,"t":5688},{"dx":-189,"dy":276,"t":5747},{"dx":-183,"dy":270,"t":5782},{"dx":-170,"dy":288,"t":5838},{"dx":-204,"dy":299,"t":5874},{"dx":-233,"dy":292,"t":5932},{"dx":-247,"dy":293,"t":5967},{"dx":-227,"dy":237,"t":6027},{"dx":-218,"dy":218,"t":6062},{"dx":-200,"dy":212,"t":6123},{"dx":-199,"dy":218,"t":6139}],[{"dx":-157,"dy":141.5,"t":7126},{"dx":-187,"dy":238.5,"t":7217},{"dx":-169,"dy":323.5,"t":7252},{"dx":-123,"dy":385.5,"t":7310},{"dx":-143,"dy":413.5,"t":7346},{"dx":-124,"dy":434.5,"t":7407},{"dx":-113,"dy":441.5,"t":7442},{"dx":-89,"dy":438.5,"t":7498},{"dx":-76,"dy":449.5,"t":7529},{"dx":-40,"dy":411.5,"t":7585},{"dx":-20,"dy":402.5,"t":7625},{"dx":-59,"dy":345.5,"t":7683},{"dx":-85,"dy":338.5,"t":7716},{"dx":-125,"dy":341.5,"t":7782},{"dx":-152,"dy":347.5,"t":7819},{"dx":-141,"dy":324.5,"t":7880},{"dx":-173,"dy":313.5,"t":7914},{"dx":-149,"dy":289.5,"t":7972},{"dx":-128,"dy":255.5,"t":8002},{"dx":-96,"dy":237.5,"t":8057},{"dx":-74,"dy":231.5,"t":8089},{"dx":-22,"dy":339.5,"t":8148},{"dx":-2,"dy":444.5,"t":8193},{"dx":63,"dy":596.5,"t":8251},{"dx":80,"dy":619.5,"t":8285},{"dx":43,"dy":538.5,"t":8350},{"dx":18,"dy":466.5,"t":8387},{"dx":-60,"dy":329.5,"t":8446},{"dx":-99,"dy":272.5,"t":8481},{"dx":-140,"dy":184.5,"t":8536},{"dx":-137,"dy":167.5,"t":8567},{"dx":-141,"dy":161.5,"t":8623},{"dx":-144,"dy":163.5,"t":8661},{"dx":-177,"dy":190.5,"t":8717},{"dx":-204,"dy":211.5,"t":8754},{"dx":-206,"dy":268.5,"t":8814},{"dx":-188,"dy":293.5,"t":8856},{"dx":-98,"dy":318.5,"t":8925},{"dx":-83,"dy":326.5,"t":8959},{"dx":-46,"dy":345.5,"t":9021},{"dx":-21,"dy":350.5,"t":9055},{"dx":19,"dy":363.5,"t":9118},{"dx":36,"dy":367.5,"t":9153},{"dx":11,"dy":360.5,"t":9187}],[{"dx":120,"dy":258,"t":10186},{"dx":84,"dy":262,"t":10242},{"dx":50,"dy":265,"t":10279},{"dx":-9,"dy":278,"t":10344},{"dx":-35,"dy":283,"t":10386},{"dx":-16,"dy":252,"t":10446},{"dx":8,"dy":231,"t":10482},{"dx":-1,"dy":218,"t":10542},{"dx":-27,"dy":199,"t":10578},{"dx":-33,"dy":160,"t":10637},{"dx":-31,"dy":132,"t":10671},{"dx":35,"dy":115,"t":10727},{"dx":77,"dy":115,"t":10758},{"dx":136,"dy":142,"t":10816},{"dx":167,"dy":140,"t":10852},{"dx":127,"dy":165,"t":10909},{"dx":101,"dy":176,"t":10942},{"dx":67,"dy":194,"t":10999},{"dx":59,"dy":202,"t":11030},{"dx":46,"dy":188,"t":11084},{"dx":30,"dy":174,"t":11122},{"dx":15,"dy":179,"t":11179},{"dx":-1,"dy":170,"t":11218},{"dx":-3,"dy":183,"t":11283},{"dx":-30,"dy":189,"t":11318},{"dx":16,"dy":180,"t":11396},{"dx":-6,"dy":166,"t":11427},{"dx":5,"dy":179,"t":11483},{"dx":12,"dy":183,"t":11528},{"dx":-26,"dy":198,"t":11585},{"dx":-39,"dy":199,"t":11621},{"dx":-34,"dy":212,"t":11679},{"dx":-16,"dy":219,"t":11711},{"dx":27,"dy":248,"t":11769},{"dx":48,"dy":262,"t":11809},{"dx":16,"dy":276,"t":11867},{"dx":27,"dy":277,"t":11899},{"dx":-8,"dy":266,"t":11957},{"dx":-16,"dy":259,"t":11988},{"dx":22,"dy":256,"t":12047},{"dx":28,"dy":259,"t":12081},{"dx":16,"dy":239,"t":12138},{"dx":9,"dy":217,"t":12176},{"dx":22,"dy":209,"t":12214}],[{"dx":-10,"dy":338.5,"t":13249},{"dx":-2,"dy":362.5,"t":13249},{"dx":6,"dy":383.5,"t":13282},{"dx":83,"dy":349.5,"t":13336},{"dx":118,"dy":343.5,"t":13394},{"dx":140,"dy":339.5,"t":13449},{"dx":145,"dy":345.5,"t":13480},{"dx":152,"dy":285.5,"t":13537},{"dx":139,"dy":270.5,"t":13569},{"dx":97,"dy":261.5,"t":13623},{"dx":69,"dy":263.5,"t":13655},{"dx":110,"dy":245.5,"t":13710},{"dx":139,"dy":235.5,"t":13747},{"dx":153,"dy":266.5,"t":13803},{"dx":173,"dy":282.5,"t":13838},{"dx":181,"dy":287.5,"t":13893},{"dx":180,"dy":297.5,"t":13925},{"dx":185,"dy":344.5,"t":13979},{"dx":209,"dy":354.5,"t":14015},{"dx":229,"dy":358.5,"t":14071},{"dx":228,"dy":353.5,"t":14102},{"dx":178,"dy":327.5,"t":14160},{"dx":134,"dy":323.5,"t":14192},{"dx":154,"dy":297.5,"t":14246},{"dx":166,"dy":287.5,"t":14280},{"dx":159,"dy":295.5,"t":14335},{"dx":181,"dy":289.5,"t":14369},{"dx":188,"dy":285.5,"t":14423},{"dx":198,"dy":316.5,"t":14455},{"dx":134,"dy":344.5,"t":14509},{"dx":95,"dy":356.5,"t":14543},{"dx":115,"dy":348.5,"t":14603},{"dx":134,"dy":336.5,"t":14635},{"dx":176,"dy":341.5,"t":14689},{"dx":199,"dy":352.5,"t":14725},{"dx":220,"dy":343.5,"t":14780},{"dx":232,"dy":327.5,"t":14811},{"dx":187,"dy":338.5,"t":14872},{"dx":150,"dy":364.5,"t":14908},{"dx":176,"dy":386.5,"t":14970},{"dx":234,"dy":377.5,"t":15007},{"dx":323,"dy":347.5,"t":15077},{"dx":355,"dy":328.5,"t":15110},{"dx":365,"dy":343.5,"t":15172},{"dx":358,"dy":352.5,"t":15232},{"dx":291,"dy":334.5,"t":15270}],[{"dx":156,"dy":412,"t":16282},{"dx":192,"dy":409,"t":16313},{"dx":159,"dy":395,"t":16371},{"dx":104,"dy":386,"t":16407},{"dx":37,"dy":412,"t":16464},{"dx":12,"dy":429,"t":16499},{"dx":-21,"dy":423,"t":16556},{"dx":-23,"dy":435,"t":16588},{"dx":41,"dy":453,"t":16642},{"dx":103,"dy":447,"t":16678},{"dx":185,"dy":457,"t":16733},{"dx":245,"dy":451,"t":16764},{"dx":318,"dy":433,"t":16818},{"dx":351,"dy":424,"t":16848},{"dx":354,"dy":423,"t":16906},{"dx":331,"dy":430,"t":16941},{"dx":259,"dy":426,"t":16999},{"dx":197,"dy":419,"t":17033},{"dx":25,"dy":260,"t":17092},{"dx":-65,"dy":135,"t":17123},{"dx":-141,"dy":23,"t":17176},{"dx":-161,"dy":-88,"t":17207},{"dx":-213,"dy":12,"t":17263},{"dx":-217,"dy":54,"t":17296},{"dx":-197,"dy":173,"t":17358},{"dx":-186,"dy":196,"t":17390},{"dx":-180,"dy":269,"t":17443},{"dx":-158,"dy":292,"t":17473},{"dx":-195,"dy":300,"t":17528},{"dx":-214,"dy":270,"t":17563},{"dx":-241,"dy":304,"t":17621},{"dx":-246,"dy":315,"t":17655},{"dx":-193,"dy":371,"t":17714},{"dx":-166,"dy":396,"t":17746},{"dx":-186,"dy":403,"t":17799},{"dx":-170,"dy":414,"t":17837},{"dx":-108,"dy":423,"t":17894},{"dx":-88,"dy":435,"t":17926},{"dx":-99,"dy":479,"t":17988},{"dx":-85,"dy":491,"t":18022},{"dx":-104,"dy":488,"t":18079},{"dx":-109,"dy":501,"t":18110},{"dx":-157,"dy":474,"t":18166},{"dx":-169,"dy":466,"t":18199},{"dx":-153,"dy":466,"t":18280},{"dx":-159,"dy":478,"t":18296}],[{"dx":222,"dy":234,"t":19289},{"dx":125,"dy":223,"t":19345},{"dx":110,"dy":187,"t":19380},{"dx":75,"dy":189,"t":19442},{"dx":82,"dy":206,"t":19476},{"dx":142,"dy":283,"t":19534},{"dx":214,"dy":317,"t":19567},{"dx":275,"dy":425,"t":19626},{"dx":305,"dy":496,"t":19663},{"dx":340,"dy":481,"t":19721},{"dx":347,"dy":437,"t":19765},{"dx":312,"dy":420,"t":19822},{"dx":271,"dy":407,"t":19854},{"dx":248,"dy":352,"t":19909},{"dx":236,"dy":313,"t":19939},{"dx":196,"dy":308,"t":19996},{"dx":144,"dy":310,"t":20028},{"dx":141,"dy":372,"t":20091},{"dx":170,"dy":421,"t":20131},{"dx":228,"dy":573,"t":20190},{"dx":272,"dy":642,"t":20225},{"dx":244,"dy":683,"t":20281},{"dx":209,"dy":648,"t":20321},{"dx":169,"dy":487,"t":20382},{"dx":126,"dy":415,"t":20422},{"dx":38,"dy":372,"t":20479},{"dx":0,"dy":337,"t":20510},{"dx":0,"dy":337,"t":20564},{"dx":27,"dy":320,"t":20595},{"dx":-6,"dy":329,"t":20649},{"dx":-28,"dy":342,"t":20681},{"dx":-27,"dy":305,"t":20744},{"dx":-1,"dy":307,"t":20779},{"dx":36,"dy":298,"t":20837},{"dx":47,"dy":315,"t":20875},{"dx":89,"dy":326,"t":20942},{"dx":107,"dy":331,"t":20994},{"dx":63,"dy":348,"t":21054},{"dx":74,"dy":335,"t":21085},{"dx":14,"dy":344,"t":21139},{"dx":-6,"dy":347,"t":21172},{"dx":-30,"dy":345,"t":21226},{"dx":-49,"dy":357,"t":21266},{"dx":-23,"dy":313,"t":21300}],[{"dx":150,"dy":274.5,"t":22317},{"dx":189,"dy":245.5,"t":22380},{"dx":207,"dy":226.5,"t":22417},{"dx":174,"dy":221.5,"t":22480},{"dx":142,"dy":219.5,"t":22515},{"dx":92,"dy":241.5,"t":22573},{"dx":74,"dy":261.5,"t":22606},{"dx":42,"dy":280.5,"t":22660},{"dx":33,"dy":281.5,"t":22692},{"dx":41,"dy":260.5,"t":22748},{"dx":54,"dy":240.5,"t":22784},{"dx":62,"dy":209.5,"t":22840},{"dx":53,"dy":191.5,"t":22871},{"dx":78,"dy":206.5,"t":22927},{"dx":85,"dy":212.5,"t":22959},{"dx":132,"dy":235.5,"t":23015},{"dx":180,"dy":236.5,"t":23050},{"dx":166,"dy":233.5,"t":23106},{"dx":162,"dy":247.5,"t":23142},{"dx":147,"dy":258.5,"t":23198},{"dx":135,"dy":241.5,"t":23229},{"dx":63,"dy":275.5,"t":23286},{"dx":101,"dy":282.5,"t":23319},{"dx":113,"dy":272.5,"t":23395},{"dx":84,"dy":265.5,"t":23430},{"dx":71,"dy":259.5,"t":23487},{"dx":82,"dy":260.5,"t":23521},{"dx":78,"dy":271.5,"t":23585},{"dx":52,"dy":263.5,"t":23616},{"dx":-29,"dy":255.5,"t":23678},{"dx":-73,"dy":250.5,"t":23711},{"dx":-120,"dy":262.5,"t":23765},{"dx":-126,"dy":260.5,"t":23796},{"dx":-51,"dy":253.5,"t":23850},{"dx":6,"dy":254.5,"t":23883},{"dx":51,"dy":259.5,"t":23939},{"dx":41,"dy":273.5,"t":23969},{"dx":43,"dy":288.5,"t":24027},{"dx":48,"dy":290.5,"t":24065},{"dx":91,"dy":279.5,"t":24118},{"dx":134,"dy":275.5,"t":24150},{"dx":127,"dy":251.5,"t":24204},{"dx":110,"dy":238.5,"t":24237},{"dx":67,"dy":249.5,"t":24291},{"dx":45,"dy":265.5,"t":24307}],[{"dx":112,"dy":182,"t":25334},{"dx":114,"dy":189,"t":25373},{"dx":105,"dy":211,"t":25431},{"dx":94,"dy":224,"t":25465},{"dx":183,"dy":195,"t":25521},{"dx":231,"dy":167,"t":25553},{"dx":236,"dy":160,"t":25613},{"dx":233,"dy":147,"t":25646},{"dx":191,"dy":141,"t":25701},{"dx":180,"dy":140,"t":25731},{"dx":196,"dy":122,"t":25796},{"dx":207,"dy":109,"t":25830},{"dx":206,"dy":96,"t":25888},{"dx":214,"dy":90,"t":25920},{"dx":209,"dy":89,"t":25975},{"dx":196,"dy":97,"t":26008},{"dx":185,"dy":116,"t":26063},{"dx":179,"dy":128,"t":26096},{"dx":205,"dy":143,"t":26149},{"dx":232,"dy":148,"t":26183},{"dx":225,"dy":155,"t":26245},{"dx":199,"dy":157,"t":26289},{"dx":164,"dy":156,"t":26356},{"dx":152,"dy":159,"t":26389},{"dx":139,"dy":157,"t":26445},{"dx":133,"dy":152,"t":26482},{"dx":143,"dy":159,"t":26537},{"dx":142,"dy":176,"t":26569},{"dx":170,"dy":169,"t":26628},{"dx":194,"dy":166,"t":26659},{"dx":227,"dy":156,"t":26724},{"dx":232,"dy":159,"t":26758},{"dx":235,"dy":172,"t":26814},{"dx":246,"dy":181,"t":26857},{"dx":348,"dy":171,"t":26926},{"dx":391,"dy":155,"t":26959},{"dx":305,"dy":170,"t":27014},{"dx":277,"dy":178,"t":27051},{"dx":240,"dy":175,"t":27114},{"dx":227,"dy":174,"t":27150},{"dx":203,"dy":149,"t":27209},{"dx":185,"dy":144,"t":27249},{"dx":174,"dy":144,"t":27308},{"dx":153,"dy":154,"t":27328}],[{"dx":345,"dy":158,"t":28330},{"dx":334,"dy":246,"t":28412},{"dx":355,"dy":328,"t":28447},{"dx":481,"dy":440,"t":28506},{"dx":530,"dy":489,"t":28540},{"dx":570,"dy":510,"t":28599},{"dx":560,"dy":486,"t":28631},{"dx":556,"dy":376,"t":28685},{"dx":574,"dy":303,"t":28721},{"dx":521,"dy":210,"t":28774},{"dx":480,"dy":181,"t":28813},{"dx":428,"dy":103,"t":28871},{"dx":414,"dy":65,"t":28906},{"dx":388,"dy":37,"t":28963},{"dx":370,"dy":39,"t":28994},{"dx":337,"dy":77,"t":29047},{"dx":329,"dy":98,"t":29084},{"dx":307,"dy":154,"t":29141},{"dx":282,"dy":175,"t":29174},{"dx":277,"dy":172,"t":29240},{"dx":260,"dy":177,"t":29274},{"dx":273,"dy":186,"t":29336},{"dx":281,"dy":181,"t":29372},{"dx":330,"dy":176,"t":29431},{"dx":364,"dy":177,"t":29466},{"dx":392,"dy":173,"t":29522},{"dx":392,"dy":169,"t":29553},{"dx":345,"dy":162,"t":29606},{"dx":304,"dy":168,"t":29639},{"dx":297,"dy":146,"t":29695},{"dx":314,"dy":134,"t":29737},{"dx":346,"dy":142,"t":29794},{"dx":354,"dy":160,"t":29825},{"dx":380,"dy":157,"t":29880},{"dx":403,"dy":148,"t":29909},{"dx":438,"dy":137,"t":29965},{"dx":447,"dy":156,"t":29998},{"dx":446,"dy":179,"t":30052},{"dx":438,"dy":185,"t":30084},{"dx":381,"dy":227,"t":30141},{"dx":363,"dy":242,"t":30174},{"dx":366,"dy":248,"t":30229},{"dx":358,"dy":247,"t":30262},{"dx":368,"dy":227,"t":30319},{"dx":347,"dy":217,"t":30343}],[{"dx":-124,"dy":201,"t":31357},{"dx":-141,"dy":212,"t":31413},{"dx":-161,"dy":221,"t":31447},{"dx":-172,"dy":199,"t":31505},{"dx":-192,"dy":196,"t":31539},{"dx":-217,"dy":205,"t":31598},{"dx":-228,"dy":209,"t":31632},{"dx":-212,"dy":206,"t":31686},{"dx":-190,"dy":201,"t":31719},{"dx":-157,"dy":209,"t":31776},{"dx":-147,"dy":211,"t":31809},{"dx":-107,"dy":177,"t":31875},{"dx":-87,"dy":159,"t":31910},{"dx":-60,"dy":147,"t":31967},{"dx":-62,"dy":141,"t":31998},{"dx":-49,"dy":148,"t":32053},{"dx":-30,"dy":149,"t":32085},{"dx":-18,"dy":169,"t":32138},{"dx":-47,"dy":187,"t":32169},{"dx":-96,"dy":200,"t":32227},{"dx":-109,"dy":209,"t":32263},{"dx":-139,"dy":217,"t":32319},{"dx":-179,"dy":218,"t":32361},{"dx":-166,"dy":212,"t":32421},{"dx":-165,"dy":200,"t":32453},{"dx":-192,"dy":195,"t":32506},{"dx":-208,"dy":205,"t":32540},{"dx":-201,"dy":171,"t":32595},{"dx":-194,"dy":148,"t":32633},{"dx":-155,"dy":138,"t":32693},{"dx":-153,"dy":138,"t":32725},{"dx":-134,"dy":118,"t":32793},{"dx":-130,"dy":102,"t":32834},{"dx":-107,"dy":101,"t":32894},{"dx":-90,"dy":103,"t":32941},{"dx":-50,"dy":116,"t":33000},{"dx":-29,"dy":125,"t":33033},{"dx":-35,"dy":159,"t":33090},{"dx":-48,"dy":179,"t":33123},{"dx":-85,"dy":213,"t":33177},{"dx":-119,"dy":222,"t":33212},{"dx":-147,"dy":205,"t":33293},{"dx":-136,"dy":184,"t":33330},{"dx":-149,"dy":176,"t":33363}],[{"dx":-83,"dy":305,"t":34394},{"dx":-104,"dy":234,"t":34450},{"dx":-93,"dy":206,"t":34484},{"dx":-87,"dy":155,"t":34539},{"dx":-98,"dy":151,"t":34570},{"dx":6,"dy":160,"t":34626},{"dx":101,"dy":184,"t":34660},{"dx":205,"dy":169,"t":34716},{"dx":294,"dy":177,"t":34751},{"dx":340,"dy":193,"t":34805},{"dx":362,"dy":191,"t":34837},{"dx":318,"dy":176,"t":34896},{"dx":325,"dy":187,"t":34930},{"dx":270,"dy":208,"t":34989},{"dx":229,"dy":203,"t":35022},{"dx":135,"dy":179,"t":35080},{"dx":85,"dy":161,"t":35112},{"dx":130,"dy":186,"t":35165},{"dx":204,"dy":221,"t":35196},{"dx":305,"dy":261,"t":35257},{"dx":367,"dy":300,"t":35291},{"dx":450,"dy":359,"t":35349},{"dx":478,"dy":368,"t":35399},{"dx":509,"dy":355,"t":35456},{"dx":512,"dy":337,"t":35488},{"dx":498,"dy":299,"t":35544},{"dx":504,"dy":280,"t":35575},{"dx":342,"dy":263,"t":35631},{"dx":210,"dy":250,"t":35667},{"dx":55,"dy":247,"t":35723},{"dx":1,"dy":234,"t":35756},{"dx":-39,"dy":219,"t":35810},{"dx":-30,"dy":225,"t":35842},{"dx":-46,"dy":240,"t":35895},{"dx":-68,"dy":256,"t":35931},{"dx":-76,"dy":246,"t":35990},{"dx":-69,"dy":254,"t":36022},{"dx":-34,"dy":234,"t":36088},{"dx":-6,"dy":217,"t":36126},{"dx":154,"dy":213,"t":36184},{"dx":263,"dy":217,"t":36228},{"dx":410,"dy":290,"t":36286},{"dx":464,"dy":326,"t":36321},{"dx":523,"dy":365,"t":36403},{"dx":552,"dy":348,"t":36418}],[{"dx":156,"dy":299.5,"t":37420},{"dx":189,"dy":273.5,"t":37482},{"dx":212,"dy":254.5,"t":37517},{"dx":238,"dy":217.5,"t":37580},{"dx":266,"dy":207.5,"t":37615},{"dx":257,"dy":213.5,"t":37675},{"dx":222,"dy":233.5,"t":37710},{"dx":187,"dy":223.5,"t":37766},{"dx":156,"dy":229.5,"t":37799},{"dx":106,"dy":206.5,"t":37853},{"dx":84,"dy":183.5,"t":37885},{"dx":84,"dy":208.5,"t":37941},{"dx":90,"dy":221.5,"t":37974},{"dx":137,"dy":227.5,"t":38038},{"dx":173,"dy":230.5,"t":38074},{"dx":206,"dy":230.5,"t":38127},{"dx":227,"dy":230.5,"t":38158},{"dx":228,"dy":227.5,"t":38218},{"dx":220,"dy":227.5,"t":38251},{"dx":256,"dy":227.5,"t":38318},{"dx":280,"dy":234.5,"t":38360},{"dx":304,"dy":245.5,"t":38436},{"dx":305,"dy":250.5,"t":38470},{"dx":303,"dy":237.5,"t":38523},{"dx":317,"dy":215.5,"t":38557},{"dx":327,"dy":202.5,"t":38615},{"dx":327,"dy":199.5,"t":38649},{"dx":307,"dy":193.5,"t":38708},{"dx":293,"dy":193.5,"t":38759},{"dx":283,"dy":217.5,"t":38816},{"dx":281,"dy":236.5,"t":38853},{"dx":225,"dy":246.5,"t":38912},{"dx":204,"dy":243.5,"t":38952},{"dx":194,"dy":244.5,"t":39035},{"dx":180,"dy":226.5,"t":39068},{"dx":200,"dy":227.5,"t":39122},{"dx":223,"dy":217.5,"t":39155},{"dx":232,"dy":227.5,"t":39213},{"dx":232,"dy":239.5,"t":39247},{"dx":239,"dy":222.5,"t":39303},{"dx":241,"dy":207.5,"t":39336}]],"percent_in_roi":[0,0,0,6.8181818181818175,0,4.3478260869565215,0,0,0,0,9.090909090909092,0,0],"average_offset":[{"x":-258.0681818181818,"y":323.5,"r":139.5083884457014},{"x":-125.4888888888889,"y":285.5111111111111,"r":114.52535004298889},{"x":-89.11363636363636,"y":336.04545454545456,"r":153.98315633646752},{"x":23.613636363636363,"y":208.5,"r":80.32464878231785},{"x":170.1304347826087,"y":324.2826086956522,"r":81.22408747104691},{"x":-29.02173913043478,"y":357.9130434782609,"r":264.2177528102552},{"x":125.63636363636364,"y":366.75,"r":201.58086157522916},{"x":75.68888888888888,"y":253.03333333333333,"r":46.59068947417512},{"x":200.27272727272728,"y":154.13636363636363,"r":63.26298594827926},{"x":387.22222222222223,"y":203.73333333333332,"r":94.3875488754531},{"x":-127.6590909090909,"y":177.29545454545453,"r":98.866840928512},{"x":194.84444444444443,"y":241.0888888888889,"r":205.5179605259974},{"x":224.17073170731706,"y":226.91463414634146,"r":46.115243737158515}],"samples_per_sec":"21.56","clicks":15,"pattern":"spread","trial_type":"webgazer-validate","trial_index":19,"time_elapsed":176866,"internal_node_id":"0.0-10.0-3.1","validation_points":[[85,15],[50,50],[62.5,37.5],[75,75],[37.5,37.5],[75,25],[25,25],[62.5,62.5],[25,75],[15,85],[85,85],[15,15],[37.5,62.5]],"user_agent":"Mozilla/5.0 (Macintosh; Intel Mac OS X 10_13_6) AppleWebKit/537.36 (KHTML, like Gecko) Chrome/87.0.4280.141 Safari/537.36","screen_width_px":1440,"screen_height_px":900},{"rt":2047.9850000701845,"stimulus":"\n      <p>Round complete.</p>\n      <p>You can move a little bit, but please try to return you head to the same general location before continuing.</p>\n    ","response":0,"trial_type":"html-button-response","trial_index":20,"time_elapsed":178916,"internal_node_id":"0.0-10.0-4.1","user_agent":"Mozilla/5.0 (Macintosh; Intel Mac OS X 10_13_6) AppleWebKit/537.36 (KHTML, like Gecko) Chrome/87.0.4280.141 Safari/537.36","screen_width_px":1440,"screen_height_px":900},{"trial_type":"webgazer-init-camera","trial_index":21,"time_elapsed":181894,"internal_node_id":"0.0-10.0-5.1","user_agent":"Mozilla/5.0 (Macintosh; Intel Mac OS X 10_13_6) AppleWebKit/537.36 (KHTML, like Gecko) Chrome/87.0.4280.141 Safari/537.36","screen_width_px":1440,"screen_height_px":900},{"rt":1352.2800002247095,"stimulus":"\n      <p>Calibration phase next.</p>\n      <p>Click on the dots.</p>\n    ","response":0,"trial_type":"html-button-response","trial_index":22,"time_elapsed":183248,"internal_node_id":"0.0-10.0-0.2","user_agent":"Mozilla/5.0 (Macintosh; Intel Mac OS X 10_13_6) AppleWebKit/537.36 (KHTML, like Gecko) Chrome/87.0.4280.141 Safari/537.36","screen_width_px":1440,"screen_height_px":900},{"trial_type":"webgazer-calibrate","trial_index":23,"time_elapsed":216407,"internal_node_id":"0.0-10.0-1.2","user_agent":"Mozilla/5.0 (Macintosh; Intel Mac OS X 10_13_6) AppleWebKit/537.36 (KHTML, like Gecko) Chrome/87.0.4280.141 Safari/537.36","screen_width_px":1440,"screen_height_px":900},{"rt":1980.3600003942847,"stimulus":"\n      <p>Validation phase next.</p>\n      <p>Look at the dots.</p>\n    ","response":0,"trial_type":"html-button-response","trial_index":24,"time_elapsed":218389,"internal_node_id":"0.0-10.0-2.2","user_agent":"Mozilla/5.0 (Macintosh; Intel Mac OS X 10_13_6) AppleWebKit/537.36 (KHTML, like Gecko) Chrome/87.0.4280.141 Safari/537.36","screen_width_px":1440,"screen_height_px":900},{"raw_gaze":[[{"dx":265,"dy":99.5,"t":1106},{"dx":291,"dy":89.5,"t":1171},{"dx":309,"dy":78.5,"t":1208},{"dx":292,"dy":80.5,"t":1266},{"dx":294,"dy":90.5,"t":1302},{"dx":169,"dy":132.5,"t":1365},{"dx":124,"dy":143.5,"t":1399},{"dx":140,"dy":119.5,"t":1454},{"dx":132,"dy":114.5,"t":1495},{"dx":160,"dy":98.5,"t":1576},{"dx":168,"dy":95.5,"t":1608},{"dx":98,"dy":109.5,"t":1664},{"dx":91,"dy":97.5,"t":1696},{"dx":142,"dy":86.5,"t":1750},{"dx":172,"dy":94.5,"t":1784},{"dx":232,"dy":124.5,"t":1838},{"dx":269,"dy":129.5,"t":1871},{"dx":276,"dy":144.5,"t":1929},{"dx":265,"dy":160.5,"t":1961},{"dx":244,"dy":165.5,"t":2014},{"dx":234,"dy":156.5,"t":2047},{"dx":159,"dy":122.5,"t":2101},{"dx":95,"dy":105.5,"t":2137},{"dx":94,"dy":95.5,"t":2192},{"dx":94,"dy":90.5,"t":2225},{"dx":108,"dy":62.5,"t":2277},{"dx":110,"dy":36.5,"t":2309},{"dx":75,"dy":45.5,"t":2369},{"dx":80,"dy":62.5,"t":2405},{"dx":149,"dy":32.5,"t":2460},{"dx":152,"dy":9.5,"t":2494},{"dx":169,"dy":43.5,"t":2572},{"dx":152,"dy":90.5,"t":2624},{"dx":203,"dy":138.5,"t":2679},{"dx":226,"dy":186.5,"t":2709},{"dx":282,"dy":138.5,"t":2767},{"dx":272,"dy":125.5,"t":2806},{"dx":217,"dy":86.5,"t":2862},{"dx":179,"dy":65.5,"t":2899},{"dx":161,"dy":86.5,"t":2959},{"dx":151,"dy":101.5,"t":2995},{"dx":139,"dy":121.5,"t":3051},{"dx":133,"dy":123.5,"t":3088},{"dx":117,"dy":88.5,"t":3122}],[{"dx":347,"dy":40,"t":4172},{"dx":286,"dy":26,"t":4172},{"dx":233,"dy":14,"t":4207},{"dx":6,"dy":-80,"t":4263},{"dx":-157,"dy":-129,"t":4300},{"dx":-118,"dy":-125,"t":4361},{"dx":-102,"dy":-130,"t":4396},{"dx":3,"dy":-70,"t":4455},{"dx":61,"dy":-58,"t":4490},{"dx":157,"dy":29,"t":4546},{"dx":190,"dy":51,"t":4584},{"dx":140,"dy":-10,"t":4637},{"dx":59,"dy":-86,"t":4677},{"dx":62,"dy":-61,"t":4739},{"dx":47,"dy":-59,"t":4775},{"dx":-53,"dy":-37,"t":4832},{"dx":-94,"dy":-30,"t":4866},{"dx":-56,"dy":-30,"t":4923},{"dx":-22,"dy":-16,"t":4957},{"dx":36,"dy":-12,"t":5021},{"dx":109,"dy":-9,"t":5065},{"dx":99,"dy":11,"t":5125},{"dx":66,"dy":12,"t":5164},{"dx":94,"dy":42,"t":5223},{"dx":100,"dy":69,"t":5260},{"dx":67,"dy":84,"t":5323},{"dx":41,"dy":94,"t":5359},{"dx":-7,"dy":104,"t":5423},{"dx":-50,"dy":93,"t":5458},{"dx":26,"dy":60,"t":5524},{"dx":51,"dy":38,"t":5563},{"dx":20,"dy":50,"t":5621},{"dx":-12,"dy":27,"t":5653},{"dx":-30,"dy":20,"t":5706},{"dx":-55,"dy":13,"t":5751},{"dx":-62,"dy":-26,"t":5810},{"dx":-76,"dy":-74,"t":5845},{"dx":33,"dy":-19,"t":5900},{"dx":85,"dy":-5,"t":5930},{"dx":24,"dy":1,"t":5989},{"dx":-54,"dy":-8,"t":6026},{"dx":-33,"dy":-6,"t":6084},{"dx":-27,"dy":-21,"t":6134},{"dx":-65,"dy":-13,"t":6168}],[{"dx":174,"dy":440,"t":7148},{"dx":116,"dy":472,"t":7209},{"dx":70,"dy":494,"t":7247},{"dx":77,"dy":513,"t":7307},{"dx":111,"dy":492,"t":7341},{"dx":68,"dy":328,"t":7397},{"dx":-1,"dy":226,"t":7436},{"dx":51,"dy":234,"t":7495},{"dx":65,"dy":229,"t":7532},{"dx":128,"dy":250,"t":7589},{"dx":165,"dy":274,"t":7625},{"dx":181,"dy":291,"t":7681},{"dx":209,"dy":303,"t":7714},{"dx":234,"dy":329,"t":7771},{"dx":227,"dy":322,"t":7803},{"dx":192,"dy":272,"t":7858},{"dx":146,"dy":228,"t":7893},{"dx":97,"dy":182,"t":7951},{"dx":16,"dy":81,"t":7985},{"dx":23,"dy":103,"t":8049},{"dx":-16,"dy":79,"t":8083},{"dx":91,"dy":187,"t":8138},{"dx":151,"dy":231,"t":8170},{"dx":158,"dy":251,"t":8228},{"dx":162,"dy":268,"t":8259},{"dx":239,"dy":287,"t":8322},{"dx":259,"dy":307,"t":8377},{"dx":117,"dy":242,"t":8432},{"dx":-7,"dy":176,"t":8469},{"dx":70,"dy":260,"t":8525},{"dx":126,"dy":299,"t":8562},{"dx":53,"dy":338,"t":8618},{"dx":31,"dy":350,"t":8651},{"dx":131,"dy":306,"t":8706},{"dx":158,"dy":269,"t":8741},{"dx":111,"dy":196,"t":8797},{"dx":28,"dy":130,"t":8828},{"dx":149,"dy":203,"t":8882},{"dx":203,"dy":248,"t":8916},{"dx":211,"dy":276,"t":8973},{"dx":228,"dy":289,"t":9008},{"dx":273,"dy":347,"t":9070},{"dx":321,"dy":372,"t":9101},{"dx":342,"dy":348,"t":9161},{"dx":349,"dy":299,"t":9174}],[{"dx":-51,"dy":113,"t":10202},{"dx":-89,"dy":162,"t":10255},{"dx":-123,"dy":180,"t":10293},{"dx":-130,"dy":201,"t":10349},{"dx":-175,"dy":230,"t":10388},{"dx":-116,"dy":165,"t":10447},{"dx":-106,"dy":119,"t":10487},{"dx":-80,"dy":35,"t":10543},{"dx":-104,"dy":-26,"t":10579},{"dx":-57,"dy":83,"t":10644},{"dx":-48,"dy":130,"t":10678},{"dx":9,"dy":138,"t":10741},{"dx":56,"dy":120,"t":10776},{"dx":22,"dy":74,"t":10834},{"dx":-18,"dy":25,"t":10866},{"dx":-7,"dy":92,"t":10924},{"dx":-27,"dy":132,"t":10957},{"dx":1,"dy":145,"t":11013},{"dx":-18,"dy":186,"t":11049},{"dx":-36,"dy":187,"t":11105},{"dx":-28,"dy":185,"t":11139},{"dx":-21,"dy":164,"t":11195},{"dx":-16,"dy":177,"t":11228},{"dx":55,"dy":137,"t":11282},{"dx":118,"dy":112,"t":11317},{"dx":74,"dy":109,"t":11373},{"dx":49,"dy":105,"t":11405},{"dx":93,"dy":156,"t":11460},{"dx":119,"dy":183,"t":11492},{"dx":94,"dy":153,"t":11547},{"dx":83,"dy":137,"t":11580},{"dx":86,"dy":117,"t":11639},{"dx":83,"dy":95,"t":11677},{"dx":108,"dy":99,"t":11737},{"dx":142,"dy":86,"t":11773},{"dx":133,"dy":118,"t":11835},{"dx":121,"dy":139,"t":11870},{"dx":113,"dy":185,"t":11926},{"dx":101,"dy":215,"t":11956},{"dx":109,"dy":192,"t":12011},{"dx":98,"dy":143,"t":12042},{"dx":97,"dy":156,"t":12095},{"dx":103,"dy":152,"t":12127},{"dx":107,"dy":170,"t":12184},{"dx":106,"dy":188,"t":12198}],[{"dx":111,"dy":424,"t":13234},{"dx":191,"dy":466,"t":13272},{"dx":159,"dy":486,"t":13334},{"dx":145,"dy":493,"t":13372},{"dx":94,"dy":541,"t":13433},{"dx":56,"dy":564,"t":13470},{"dx":40,"dy":529,"t":13530},{"dx":85,"dy":488,"t":13566},{"dx":160,"dy":423,"t":13620},{"dx":156,"dy":368,"t":13652},{"dx":184,"dy":283,"t":13709},{"dx":234,"dy":248,"t":13742},{"dx":261,"dy":215,"t":13797},{"dx":201,"dy":199,"t":13831},{"dx":220,"dy":208,"t":13886},{"dx":247,"dy":208,"t":13918},{"dx":242,"dy":147,"t":13972},{"dx":205,"dy":111,"t":14006},{"dx":167,"dy":126,"t":14067},{"dx":169,"dy":145,"t":14102},{"dx":148,"dy":176,"t":14161},{"dx":126,"dy":193,"t":14194},{"dx":88,"dy":217,"t":14247},{"dx":76,"dy":215,"t":14278},{"dx":41,"dy":203,"t":14336},{"dx":94,"dy":192,"t":14372},{"dx":66,"dy":183,"t":14429},{"dx":98,"dy":161,"t":14462},{"dx":103,"dy":137,"t":14536},{"dx":115,"dy":130,"t":14594},{"dx":156,"dy":161,"t":14648},{"dx":174,"dy":185,"t":14682},{"dx":69,"dy":134,"t":14737},{"dx":4,"dy":65,"t":14770},{"dx":38,"dy":156,"t":14835},{"dx":62,"dy":183,"t":14868},{"dx":83,"dy":239,"t":14925},{"dx":82,"dy":267,"t":14960},{"dx":22,"dy":261,"t":15013},{"dx":-12,"dy":266,"t":15046},{"dx":-45,"dy":276,"t":15104},{"dx":-49,"dy":279,"t":15137},{"dx":21,"dy":265,"t":15198},{"dx":53,"dy":266,"t":15212}],[{"dx":10,"dy":57.5,"t":16246},{"dx":34,"dy":51.5,"t":16278},{"dx":4,"dy":10.5,"t":16334},{"dx":3,"dy":-7.5,"t":16383},{"dx":68,"dy":53.5,"t":16437},{"dx":86,"dy":59.5,"t":16468},{"dx":126,"dy":77.5,"t":16544},{"dx":161,"dy":104.5,"t":16579},{"dx":147,"dy":56.5,"t":16635},{"dx":134,"dy":29.5,"t":16670},{"dx":142,"dy":1.5,"t":16730},{"dx":129,"dy":-20.5,"t":16763},{"dx":162,"dy":22.5,"t":16819},{"dx":182,"dy":41.5,"t":16852},{"dx":197,"dy":77.5,"t":16909},{"dx":162,"dy":105.5,"t":16947},{"dx":49,"dy":52.5,"t":17003},{"dx":-38,"dy":17.5,"t":17037},{"dx":42,"dy":21.5,"t":17090},{"dx":79,"dy":16.5,"t":17123},{"dx":59,"dy":51.5,"t":17178},{"dx":34,"dy":85.5,"t":17213},{"dx":66,"dy":101.5,"t":17268},{"dx":48,"dy":117.5,"t":17303},{"dx":34,"dy":59.5,"t":17359},{"dx":30,"dy":23.5,"t":17394},{"dx":109,"dy":14.5,"t":17459},{"dx":157,"dy":-4.5,"t":17494},{"dx":173,"dy":21.5,"t":17560},{"dx":148,"dy":42.5,"t":17594},{"dx":78,"dy":67.5,"t":17649},{"dx":38,"dy":92.5,"t":17681},{"dx":72,"dy":12.5,"t":17736},{"dx":65,"dy":-38.5,"t":17769},{"dx":113,"dy":-24.5,"t":17823},{"dx":149,"dy":-39.5,"t":17856},{"dx":144,"dy":59.5,"t":17911},{"dx":124,"dy":109.5,"t":17943},{"dx":106,"dy":130.5,"t":17997},{"dx":64,"dy":161.5,"t":18030},{"dx":124,"dy":134.5,"t":18089},{"dx":112,"dy":162.5,"t":18126},{"dx":100,"dy":128.5,"t":18190},{"dx":82,"dy":120.5,"t":18225},{"dx":43,"dy":102.5,"t":18260}],[{"dx":-287,"dy":-25,"t":19266},{"dx":-255,"dy":-14,"t":19352},{"dx":-267,"dy":-5,"t":19395},{"dx":-283,"dy":29,"t":19453},{"dx":-305,"dy":53,"t":19493},{"dx":-310,"dy":74,"t":19551},{"dx":-328,"dy":65,"t":19583},{"dx":-261,"dy":104,"t":19639},{"dx":-191,"dy":144,"t":19671},{"dx":-198,"dy":156,"t":19727},{"dx":-212,"dy":156,"t":19765},{"dx":-192,"dy":161,"t":19825},{"dx":-261,"dy":160,"t":19862},{"dx":-234,"dy":168,"t":19925},{"dx":-157,"dy":167,"t":19960},{"dx":-124,"dy":161,"t":20020},{"dx":-107,"dy":148,"t":20056},{"dx":-77,"dy":124,"t":20113},{"dx":-89,"dy":129,"t":20148},{"dx":-155,"dy":135,"t":20204},{"dx":-210,"dy":134,"t":20234},{"dx":-300,"dy":102,"t":20292},{"dx":-320,"dy":85,"t":20336},{"dx":-170,"dy":118,"t":20392},{"dx":-92,"dy":124,"t":20425},{"dx":-91,"dy":139,"t":20482},{"dx":-119,"dy":161,"t":20521},{"dx":-136,"dy":197,"t":20577},{"dx":-129,"dy":211,"t":20617},{"dx":-124,"dy":206,"t":20676},{"dx":-104,"dy":188,"t":20712},{"dx":-160,"dy":155,"t":20782},{"dx":-237,"dy":145,"t":20825},{"dx":-147,"dy":158,"t":20906},{"dx":-107,"dy":159,"t":20939},{"dx":-43,"dy":154,"t":20994},{"dx":-40,"dy":145,"t":21029},{"dx":-57,"dy":119,"t":21087},{"dx":-39,"dy":109,"t":21120},{"dx":-125,"dy":121,"t":21176},{"dx":-171,"dy":128,"t":21209},{"dx":-213,"dy":136,"t":21265},{"dx":-241,"dy":130,"t":21280}],[{"dx":228,"dy":288.5,"t":22283},{"dx":207,"dy":276.5,"t":22347},{"dx":186,"dy":265.5,"t":22383},{"dx":171,"dy":249.5,"t":22441},{"dx":163,"dy":239.5,"t":22482},{"dx":158,"dy":240.5,"t":22543},{"dx":146,"dy":250.5,"t":22581},{"dx":102,"dy":252.5,"t":22641},{"dx":93,"dy":255.5,"t":22674},{"dx":54,"dy":167.5,"t":22730},{"dx":11,"dy":123.5,"t":22762},{"dx":120,"dy":118.5,"t":22821},{"dx":118,"dy":71.5,"t":22855},{"dx":115,"dy":119.5,"t":22913},{"dx":83,"dy":124.5,"t":22945},{"dx":129,"dy":228.5,"t":22999},{"dx":199,"dy":286.5,"t":23030},{"dx":256,"dy":318.5,"t":23089},{"dx":275,"dy":317.5,"t":23124},{"dx":183,"dy":301.5,"t":23183},{"dx":158,"dy":283.5,"t":23216},{"dx":141,"dy":285.5,"t":23272},{"dx":97,"dy":288.5,"t":23305},{"dx":95,"dy":313.5,"t":23361},{"dx":149,"dy":337.5,"t":23393},{"dx":82,"dy":266.5,"t":23449},{"dx":59,"dy":251.5,"t":23481},{"dx":64,"dy":220.5,"t":23537},{"dx":57,"dy":215.5,"t":23570},{"dx":103,"dy":192.5,"t":23631},{"dx":128,"dy":164.5,"t":23663},{"dx":166,"dy":177.5,"t":23717},{"dx":179,"dy":207.5,"t":23750},{"dx":206,"dy":257.5,"t":23810},{"dx":234,"dy":277.5,"t":23844},{"dx":232,"dy":277.5,"t":23903},{"dx":209,"dy":262.5,"t":23935},{"dx":266,"dy":314.5,"t":23988},{"dx":279,"dy":345.5,"t":24023},{"dx":254,"dy":301.5,"t":24083},{"dx":215,"dy":252.5,"t":24117},{"dx":105,"dy":283.5,"t":24172},{"dx":77,"dy":262.5,"t":24206},{"dx":98,"dy":266.5,"t":24259},{"dx":105,"dy":268.5,"t":24294},{"dx":104,"dy":297.5,"t":24329}],[{"dx":70,"dy":107,"t":25340},{"dx":15,"dy":79,"t":25396},{"dx":-12,"dy":60,"t":25430},{"dx":12,"dy":87,"t":25489},{"dx":37,"dy":126,"t":25521},{"dx":76,"dy":151,"t":25578},{"dx":96,"dy":165,"t":25613},{"dx":113,"dy":147,"t":25670},{"dx":141,"dy":141,"t":25704},{"dx":73,"dy":111,"t":25758},{"dx":25,"dy":100,"t":25791},{"dx":58,"dy":95,"t":25846},{"dx":124,"dy":97,"t":25881},{"dx":158,"dy":147,"t":25937},{"dx":162,"dy":173,"t":25971},{"dx":166,"dy":164,"t":26027},{"dx":162,"dy":175,"t":26059},{"dx":159,"dy":208,"t":26113},{"dx":219,"dy":222,"t":26146},{"dx":151,"dy":197,"t":26203},{"dx":102,"dy":170,"t":26235},{"dx":-22,"dy":78,"t":26289},{"dx":-118,"dy":13,"t":26324},{"dx":-93,"dy":0,"t":26378},{"dx":-54,"dy":21,"t":26412},{"dx":32,"dy":28,"t":26469},{"dx":55,"dy":38,"t":26503},{"dx":143,"dy":97,"t":26577},{"dx":193,"dy":123,"t":26614},{"dx":184,"dy":112,"t":26673},{"dx":166,"dy":89,"t":26708},{"dx":192,"dy":102,"t":26772},{"dx":207,"dy":120,"t":26806},{"dx":166,"dy":99,"t":26871},{"dx":165,"dy":91,"t":26906},{"dx":150,"dy":93,"t":26966},{"dx":147,"dy":81,"t":27008},{"dx":161,"dy":97,"t":27098},{"dx":140,"dy":103,"t":27135},{"dx":131,"dy":136,"t":27191},{"dx":132,"dy":144,"t":27221},{"dx":66,"dy":152,"t":27276},{"dx":3,"dy":158,"t":27313},{"dx":55,"dy":110,"t":27347}],[{"dx":-114,"dy":50,"t":28346},{"dx":-41,"dy":12,"t":28435},{"dx":20,"dy":-19,"t":28474},{"dx":174,"dy":-43,"t":28553},{"dx":212,"dy":-26,"t":28588},{"dx":216,"dy":1,"t":28643},{"dx":224,"dy":-8,"t":28676},{"dx":308,"dy":-37,"t":28733},{"dx":338,"dy":-12,"t":28768},{"dx":299,"dy":6,"t":28824},{"dx":251,"dy":36,"t":28859},{"dx":156,"dy":75,"t":28912},{"dx":90,"dy":96,"t":28944},{"dx":56,"dy":92,"t":29000},{"dx":46,"dy":84,"t":29033},{"dx":78,"dy":46,"t":29086},{"dx":97,"dy":33,"t":29120},{"dx":127,"dy":43,"t":29176},{"dx":161,"dy":22,"t":29209},{"dx":152,"dy":11,"t":29266},{"dx":160,"dy":7,"t":29299},{"dx":154,"dy":28,"t":29354},{"dx":151,"dy":58,"t":29386},{"dx":143,"dy":61,"t":29440},{"dx":133,"dy":53,"t":29474},{"dx":154,"dy":61,"t":29533},{"dx":153,"dy":66,"t":29567},{"dx":162,"dy":75,"t":29624},{"dx":181,"dy":70,"t":29657},{"dx":158,"dy":71,"t":29716},{"dx":128,"dy":81,"t":29747},{"dx":160,"dy":70,"t":29806},{"dx":180,"dy":68,"t":29838},{"dx":142,"dy":62,"t":29897},{"dx":121,"dy":74,"t":29937},{"dx":72,"dy":37,"t":29994},{"dx":83,"dy":8,"t":30027},{"dx":136,"dy":-42,"t":30080},{"dx":175,"dy":-59,"t":30118},{"dx":172,"dy":-49,"t":30172},{"dx":146,"dy":-33,"t":30207},{"dx":109,"dy":41,"t":30264},{"dx":151,"dy":81,"t":30302},{"dx":129,"dy":102,"t":30367},{"dx":120,"dy":99,"t":30387}],[{"dx":157,"dy":169.5,"t":31407},{"dx":150,"dy":203.5,"t":31465},{"dx":134,"dy":223.5,"t":31502},{"dx":117,"dy":185.5,"t":31564},{"dx":103,"dy":162.5,"t":31603},{"dx":105,"dy":133.5,"t":31662},{"dx":92,"dy":113.5,"t":31700},{"dx":84,"dy":147.5,"t":31760},{"dx":82,"dy":164.5,"t":31797},{"dx":54,"dy":135.5,"t":31862},{"dx":10,"dy":123.5,"t":31898},{"dx":-43,"dy":108.5,"t":31956},{"dx":-43,"dy":112.5,"t":31988},{"dx":-98,"dy":61.5,"t":32041},{"dx":-137,"dy":14.5,"t":32073},{"dx":-78,"dy":99.5,"t":32128},{"dx":-63,"dy":142.5,"t":32168},{"dx":34,"dy":162.5,"t":32224},{"dx":97,"dy":169.5,"t":32259},{"dx":172,"dy":211.5,"t":32315},{"dx":185,"dy":257.5,"t":32346},{"dx":103,"dy":230.5,"t":32400},{"dx":70,"dy":206.5,"t":32435},{"dx":22,"dy":205.5,"t":32493},{"dx":-29,"dy":193.5,"t":32528},{"dx":66,"dy":216.5,"t":32587},{"dx":96,"dy":216.5,"t":32619},{"dx":78,"dy":225.5,"t":32673},{"dx":70,"dy":245.5,"t":32704},{"dx":35,"dy":221.5,"t":32760},{"dx":4,"dy":205.5,"t":32794},{"dx":-4,"dy":156.5,"t":32853},{"dx":-7,"dy":135.5,"t":32886},{"dx":3,"dy":191.5,"t":32941},{"dx":-1,"dy":210.5,"t":32972},{"dx":29,"dy":233.5,"t":33027},{"dx":57,"dy":240.5,"t":33065},{"dx":114,"dy":208.5,"t":33146},{"dx":125,"dy":198.5,"t":33178},{"dx":71,"dy":174.5,"t":33231},{"dx":71,"dy":160.5,"t":33265},{"dx":102,"dy":176.5,"t":33322},{"dx":98,"dy":184.5,"t":33359},{"dx":126,"dy":159.5,"t":33393}],[{"dx":52,"dy":21,"t":34409},{"dx":77,"dy":73,"t":34467},{"dx":91,"dy":110,"t":34502},{"dx":97,"dy":121,"t":34562},{"dx":50,"dy":106,"t":34599},{"dx":19,"dy":61,"t":34665},{"dx":0,"dy":43,"t":34696},{"dx":-3,"dy":19,"t":34753},{"dx":27,"dy":5,"t":34786},{"dx":92,"dy":-2,"t":34841},{"dx":114,"dy":-13,"t":34873},{"dx":116,"dy":-14,"t":34928},{"dx":117,"dy":-5,"t":34962},{"dx":91,"dy":8,"t":35023},{"dx":69,"dy":12,"t":35060},{"dx":36,"dy":34,"t":35118},{"dx":54,"dy":58,"t":35151},{"dx":110,"dy":38,"t":35208},{"dx":113,"dy":31,"t":35239},{"dx":103,"dy":59,"t":35293},{"dx":93,"dy":85,"t":35327},{"dx":75,"dy":110,"t":35383},{"dx":52,"dy":131,"t":35420},{"dx":80,"dy":135,"t":35477},{"dx":94,"dy":130,"t":35511},{"dx":118,"dy":105,"t":35566},{"dx":134,"dy":117,"t":35597},{"dx":141,"dy":141,"t":35657},{"dx":135,"dy":161,"t":35694},{"dx":86,"dy":93,"t":35751},{"dx":79,"dy":79,"t":35787},{"dx":78,"dy":40,"t":35848},{"dx":90,"dy":14,"t":35884},{"dx":92,"dy":-3,"t":35949},{"dx":92,"dy":19,"t":35981},{"dx":69,"dy":11,"t":36034},{"dx":60,"dy":20,"t":36065},{"dx":60,"dy":3,"t":36120},{"dx":61,"dy":-10,"t":36153},{"dx":84,"dy":45,"t":36210},{"dx":77,"dy":71,"t":36245},{"dx":93,"dy":111,"t":36299},{"dx":126,"dy":135,"t":36331},{"dx":120,"dy":95,"t":36395},{"dx":148,"dy":78,"t":36408}],[{"dx":-256,"dy":-89,"t":37436},{"dx":-235,"dy":-96,"t":37472},{"dx":-83,"dy":-58,"t":37529},{"dx":34,"dy":-15,"t":37562},{"dx":127,"dy":81,"t":37618},{"dx":168,"dy":176,"t":37655},{"dx":207,"dy":368,"t":37712},{"dx":181,"dy":419,"t":37745},{"dx":231,"dy":428,"t":37800},{"dx":256,"dy":386,"t":37832},{"dx":380,"dy":333,"t":37886},{"dx":413,"dy":295,"t":37921},{"dx":458,"dy":223,"t":37978},{"dx":460,"dy":193,"t":38010},{"dx":441,"dy":167,"t":38065},{"dx":423,"dy":166,"t":38100},{"dx":406,"dy":182,"t":38157},{"dx":350,"dy":186,"t":38188},{"dx":365,"dy":185,"t":38243},{"dx":356,"dy":189,"t":38283},{"dx":308,"dy":186,"t":38341},{"dx":324,"dy":176,"t":38375},{"dx":332,"dy":159,"t":38436},{"dx":349,"dy":147,"t":38471},{"dx":423,"dy":130,"t":38524},{"dx":471,"dy":121,"t":38567},{"dx":392,"dy":98,"t":38625},{"dx":324,"dy":82,"t":38658},{"dx":349,"dy":146,"t":38713},{"dx":319,"dy":158,"t":38753},{"dx":274,"dy":189,"t":38815},{"dx":266,"dy":207,"t":38853},{"dx":233,"dy":201,"t":38914},{"dx":161,"dy":198,"t":38947},{"dx":47,"dy":198,"t":39038},{"dx":16,"dy":198,"t":39071},{"dx":3,"dy":238,"t":39128},{"dx":76,"dy":252,"t":39160},{"dx":109,"dy":284,"t":39213},{"dx":100,"dy":312,"t":39250},{"dx":158,"dy":291,"t":39309},{"dx":225,"dy":277,"t":39349}]],"percent_in_roi":[22.727272727272727,81.81818181818183,8.88888888888889,40,2.272727272727273,62.22222222222222,6.976744186046512,6.521739130434782,34.090909090909086,35.55555555555556,20.454545454545457,77.77777777777779,4.761904761904762],"average_offset":[{"x":179.1818181818182,"y":101.61363636363636,"r":118.18296424211465},{"x":31.113636363636363,"y":-5.363636363636363,"r":127.81554096361418},{"x":139.7111111111111,"y":280.46666666666664,"r":99.50360747849582},{"x":22.88888888888889,"y":136.9777777777778,"r":77.6820553821477},{"x":112.27272727272727,"y":260.95454545454544,"r":186.48844998485458},{"x":92.24444444444444,"y":56.03333333333333,"r":70.23381409246765},{"x":-178.32558139534885,"y":125.90697674418605,"r":85.5276278268455},{"x":149.1086956521739,"y":247.1304347826087,"r":105.59196748265629},{"x":97.9090909090909,"y":113.79545454545455,"r":107.0903001208616},{"x":142.73333333333332,"y":34.48888888888889,"r":65.34318897696232},{"x":54.84090909090909,"y":175,"r":97.86912728681318},{"x":83.6,"y":59.577777777777776,"r":54.03686441726039},{"x":236.6904761904762,"y":189.6904761904762,"r":262.5260793175761}],"samples_per_sec":"21.62","clicks":25,"pattern":"spread","trial_type":"webgazer-validate","trial_index":25,"time_elapsed":258755,"internal_node_id":"0.0-10.0-3.2","validation_points":[[37.5,37.5],[85,85],[75,25],[50,50],[85,15],[37.5,62.5],[15,15],[62.5,37.5],[75,75],[15,85],[62.5,62.5],[25,75],[25,25]],"user_agent":"Mozilla/5.0 (Macintosh; Intel Mac OS X 10_13_6) AppleWebKit/537.36 (KHTML, like Gecko) Chrome/87.0.4280.141 Safari/537.36","screen_width_px":1440,"screen_height_px":900},{"rt":2088.1400001235306,"stimulus":"\n      <p>Round complete.</p>\n      <p>You can move a little bit, but please try to return you head to the same general location before continuing.</p>\n    ","response":0,"trial_type":"html-button-response","trial_index":26,"time_elapsed":260845,"internal_node_id":"0.0-10.0-4.2","user_agent":"Mozilla/5.0 (Macintosh; Intel Mac OS X 10_13_6) AppleWebKit/537.36 (KHTML, like Gecko) Chrome/87.0.4280.141 Safari/537.36","screen_width_px":1440,"screen_height_px":900},{"trial_type":"webgazer-init-camera","trial_index":27,"time_elapsed":264282,"internal_node_id":"0.0-10.0-5.2","user_agent":"Mozilla/5.0 (Macintosh; Intel Mac OS X 10_13_6) AppleWebKit/537.36 (KHTML, like Gecko) Chrome/87.0.4280.141 Safari/537.36","screen_width_px":1440,"screen_height_px":900},{"rt":1056.940000038594,"stimulus":"\n      <p>Calibration phase next.</p>\n      <p>Click on the dots.</p>\n    ","response":0,"trial_type":"html-button-response","trial_index":28,"time_elapsed":265341,"internal_node_id":"0.0-10.0-0.3","user_agent":"Mozilla/5.0 (Macintosh; Intel Mac OS X 10_13_6) AppleWebKit/537.36 (KHTML, like Gecko) Chrome/87.0.4280.141 Safari/537.36","screen_width_px":1440,"screen_height_px":900},{"trial_type":"webgazer-calibrate","trial_index":29,"time_elapsed":295140,"internal_node_id":"0.0-10.0-1.3","user_agent":"Mozilla/5.0 (Macintosh; Intel Mac OS X 10_13_6) AppleWebKit/537.36 (KHTML, like Gecko) Chrome/87.0.4280.141 Safari/537.36","screen_width_px":1440,"screen_height_px":900},{"rt":854.6950002200902,"stimulus":"\n      <p>Validation phase next.</p>\n      <p>Look at the dots.</p>\n    ","response":0,"trial_type":"html-button-response","trial_index":30,"time_elapsed":295997,"internal_node_id":"0.0-10.0-2.3","user_agent":"Mozilla/5.0 (Macintosh; Intel Mac OS X 10_13_6) AppleWebKit/537.36 (KHTML, like Gecko) Chrome/87.0.4280.141 Safari/537.36","screen_width_px":1440,"screen_height_px":900},{"raw_gaze":[[{"dx":-40,"dy":-24,"t":1106},{"dx":-38,"dy":-38,"t":1145},{"dx":-97,"dy":-28,"t":1208},{"dx":-125,"dy":-7,"t":1244},{"dx":-58,"dy":-24,"t":1309},{"dx":-37,"dy":-37,"t":1346},{"dx":10,"dy":-20,"t":1402},{"dx":22,"dy":10,"t":1434},{"dx":92,"dy":135,"t":1489},{"dx":147,"dy":240,"t":1521},{"dx":289,"dy":337,"t":1575},{"dx":310,"dy":344,"t":1607},{"dx":331,"dy":306,"t":1666},{"dx":340,"dy":306,"t":1699},{"dx":328,"dy":293,"t":1754},{"dx":283,"dy":333,"t":1785},{"dx":205,"dy":305,"t":1839},{"dx":153,"dy":243,"t":1872},{"dx":99,"dy":116,"t":1930},{"dx":93,"dy":60,"t":1962},{"dx":43,"dy":-32,"t":2012},{"dx":43,"dy":-55,"t":2043},{"dx":15,"dy":-91,"t":2099},{"dx":2,"dy":-95,"t":2131},{"dx":-22,"dy":-72,"t":2183},{"dx":-9,"dy":-52,"t":2213},{"dx":47,"dy":-48,"t":2267},{"dx":91,"dy":-40,"t":2300},{"dx":200,"dy":-29,"t":2358},{"dx":266,"dy":-19,"t":2393},{"dx":355,"dy":18,"t":2446},{"dx":381,"dy":42,"t":2483},{"dx":369,"dy":69,"t":2551},{"dx":341,"dy":74,"t":2591},{"dx":309,"dy":55,"t":2645},{"dx":310,"dy":39,"t":2687},{"dx":277,"dy":44,"t":2776},{"dx":253,"dy":43,"t":2812},{"dx":285,"dy":41,"t":2870},{"dx":320,"dy":56,"t":2907},{"dx":351,"dy":45,"t":2964},{"dx":368,"dy":37,"t":3001},{"dx":448,"dy":110,"t":3062},{"dx":503,"dy":177,"t":3075}],[{"dx":11,"dy":17,"t":4096},{"dx":52,"dy":5,"t":4155},{"dx":68,"dy":0,"t":4191},{"dx":71,"dy":-21,"t":4248},{"dx":99,"dy":-35,"t":4286},{"dx":109,"dy":-38,"t":4338},{"dx":115,"dy":-31,"t":4372},{"dx":131,"dy":-22,"t":4429},{"dx":141,"dy":-23,"t":4463},{"dx":99,"dy":-46,"t":4518},{"dx":73,"dy":-56,"t":4550},{"dx":54,"dy":-74,"t":4609},{"dx":51,"dy":-90,"t":4641},{"dx":73,"dy":-81,"t":4696},{"dx":92,"dy":-83,"t":4730},{"dx":78,"dy":-60,"t":4784},{"dx":59,"dy":-47,"t":4820},{"dx":67,"dy":-32,"t":4873},{"dx":61,"dy":-12,"t":4906},{"dx":138,"dy":1,"t":4962},{"dx":194,"dy":4,"t":5001},{"dx":187,"dy":3,"t":5057},{"dx":193,"dy":-12,"t":5094},{"dx":138,"dy":-31,"t":5149},{"dx":111,"dy":-35,"t":5185},{"dx":71,"dy":-32,"t":5240},{"dx":53,"dy":-31,"t":5273},{"dx":37,"dy":-37,"t":5328},{"dx":36,"dy":-42,"t":5361},{"dx":62,"dy":-18,"t":5417},{"dx":10,"dy":-7,"t":5452},{"dx":33,"dy":-6,"t":5508},{"dx":44,"dy":-6,"t":5539},{"dx":74,"dy":-30,"t":5595},{"dx":113,"dy":-46,"t":5626},{"dx":114,"dy":-38,"t":5683},{"dx":118,"dy":-37,"t":5714},{"dx":124,"dy":-77,"t":5768},{"dx":139,"dy":-123,"t":5801},{"dx":175,"dy":-106,"t":5858},{"dx":166,"dy":-82,"t":5891},{"dx":177,"dy":-76,"t":5948},{"dx":176,"dy":-96,"t":5980},{"dx":164,"dy":-90,"t":6036},{"dx":187,"dy":-95,"t":6074},{"dx":199,"dy":-73,"t":6108}],[{"dx":-47,"dy":-182,"t":7171},{"dx":-24,"dy":-172,"t":7171},{"dx":1,"dy":-151,"t":7204},{"dx":30,"dy":-144,"t":7263},{"dx":31,"dy":-136,"t":7299},{"dx":21,"dy":-141,"t":7356},{"dx":10,"dy":-147,"t":7390},{"dx":20,"dy":-109,"t":7450},{"dx":-2,"dy":-105,"t":7482},{"dx":20,"dy":-57,"t":7536},{"dx":56,"dy":-19,"t":7569},{"dx":122,"dy":-22,"t":7627},{"dx":122,"dy":-27,"t":7660},{"dx":124,"dy":-32,"t":7718},{"dx":111,"dy":-43,"t":7751},{"dx":86,"dy":-33,"t":7804},{"dx":69,"dy":-31,"t":7835},{"dx":84,"dy":5,"t":7893},{"dx":109,"dy":46,"t":7927},{"dx":74,"dy":8,"t":7992},{"dx":70,"dy":-15,"t":8029},{"dx":47,"dy":-29,"t":8085},{"dx":37,"dy":-20,"t":8123},{"dx":62,"dy":-42,"t":8183},{"dx":71,"dy":-33,"t":8218},{"dx":65,"dy":-45,"t":8277},{"dx":94,"dy":-58,"t":8312},{"dx":12,"dy":-79,"t":8368},{"dx":12,"dy":-71,"t":8400},{"dx":-30,"dy":-65,"t":8458},{"dx":-37,"dy":-70,"t":8492},{"dx":9,"dy":-11,"t":8554},{"dx":16,"dy":10,"t":8591},{"dx":6,"dy":32,"t":8647},{"dx":4,"dy":47,"t":8688},{"dx":-14,"dy":21,"t":8798},{"dx":-28,"dy":-12,"t":8832},{"dx":-7,"dy":-8,"t":8889},{"dx":54,"dy":24,"t":8926},{"dx":89,"dy":-21,"t":8989},{"dx":125,"dy":-35,"t":9025},{"dx":96,"dy":25,"t":9082},{"dx":69,"dy":47,"t":9119},{"dx":35,"dy":79,"t":9155}],[{"dx":345,"dy":-40,"t":10152},{"dx":317,"dy":-58,"t":10250},{"dx":299,"dy":-77,"t":10287},{"dx":253,"dy":-110,"t":10350},{"dx":228,"dy":-120,"t":10387},{"dx":171,"dy":-128,"t":10448},{"dx":127,"dy":-121,"t":10485},{"dx":-17,"dy":42,"t":10543},{"dx":-87,"dy":145,"t":10577},{"dx":-141,"dy":214,"t":10632},{"dx":-138,"dy":192,"t":10667},{"dx":-15,"dy":157,"t":10725},{"dx":54,"dy":133,"t":10758},{"dx":45,"dy":90,"t":10814},{"dx":18,"dy":76,"t":10850},{"dx":-11,"dy":58,"t":10906},{"dx":-13,"dy":37,"t":10941},{"dx":12,"dy":34,"t":10996},{"dx":23,"dy":34,"t":11027},{"dx":42,"dy":16,"t":11083},{"dx":56,"dy":12,"t":11116},{"dx":40,"dy":11,"t":11175},{"dx":37,"dy":7,"t":11207},{"dx":15,"dy":11,"t":11260},{"dx":23,"dy":8,"t":11290},{"dx":42,"dy":-7,"t":11351},{"dx":50,"dy":2,"t":11385},{"dx":58,"dy":5,"t":11442},{"dx":54,"dy":8,"t":11477},{"dx":2,"dy":1,"t":11531},{"dx":-14,"dy":-8,"t":11568},{"dx":-30,"dy":-1,"t":11623},{"dx":-45,"dy":-3,"t":11653},{"dx":-10,"dy":7,"t":11709},{"dx":20,"dy":14,"t":11741},{"dx":34,"dy":3,"t":11794},{"dx":42,"dy":0,"t":11825},{"dx":63,"dy":-2,"t":11881},{"dx":110,"dy":-17,"t":11915},{"dx":90,"dy":-29,"t":11976},{"dx":75,"dy":-45,"t":12012},{"dx":84,"dy":-41,"t":12070},{"dx":68,"dy":-22,"t":12105},{"dx":75,"dy":3,"t":12165},{"dx":43,"dy":10,"t":12180}],[{"dx":52,"dy":30,"t":13177},{"dx":63,"dy":32,"t":13240},{"dx":86,"dy":40,"t":13275},{"dx":123,"dy":9,"t":13340},{"dx":134,"dy":-7,"t":13376},{"dx":133,"dy":-26,"t":13440},{"dx":113,"dy":-32,"t":13475},{"dx":119,"dy":-38,"t":13533},{"dx":123,"dy":-43,"t":13567},{"dx":87,"dy":-64,"t":13622},{"dx":86,"dy":-47,"t":13655},{"dx":58,"dy":-18,"t":13709},{"dx":38,"dy":7,"t":13745},{"dx":84,"dy":0,"t":13803},{"dx":76,"dy":15,"t":13839},{"dx":91,"dy":27,"t":13895},{"dx":117,"dy":29,"t":13928},{"dx":94,"dy":13,"t":13983},{"dx":52,"dy":-1,"t":14015},{"dx":41,"dy":-15,"t":14074},{"dx":39,"dy":-21,"t":14110},{"dx":39,"dy":-14,"t":14169},{"dx":36,"dy":-5,"t":14203},{"dx":67,"dy":8,"t":14261},{"dx":93,"dy":44,"t":14293},{"dx":79,"dy":8,"t":14346},{"dx":53,"dy":-15,"t":14380},{"dx":32,"dy":-14,"t":14439},{"dx":13,"dy":-3,"t":14479},{"dx":12,"dy":17,"t":14536},{"dx":7,"dy":23,"t":14578},{"dx":13,"dy":67,"t":14650},{"dx":33,"dy":90,"t":14705},{"dx":-46,"dy":74,"t":14769},{"dx":-112,"dy":88,"t":14805},{"dx":-187,"dy":117,"t":14861},{"dx":-194,"dy":134,"t":14896},{"dx":-166,"dy":123,"t":14952},{"dx":-173,"dy":125,"t":14984},{"dx":-153,"dy":126,"t":15040},{"dx":-145,"dy":136,"t":15075},{"dx":-156,"dy":131,"t":15133},{"dx":-180,"dy":142,"t":15173},{"dx":-99,"dy":112,"t":15205}],[{"dx":-52,"dy":130.5,"t":16226},{"dx":-79,"dy":102.5,"t":16283},{"dx":-81,"dy":101.5,"t":16316},{"dx":-62,"dy":62.5,"t":16371},{"dx":-46,"dy":59.5,"t":16405},{"dx":-44,"dy":60.5,"t":16464},{"dx":-50,"dy":93.5,"t":16498},{"dx":23,"dy":182.5,"t":16554},{"dx":40,"dy":236.5,"t":16586},{"dx":84,"dy":229.5,"t":16640},{"dx":98,"dy":216.5,"t":16673},{"dx":102,"dy":203.5,"t":16729},{"dx":99,"dy":196.5,"t":16764},{"dx":-2,"dy":129.5,"t":16819},{"dx":-67,"dy":104.5,"t":16855},{"dx":-87,"dy":62.5,"t":16910},{"dx":-113,"dy":43.5,"t":16942},{"dx":-75,"dy":20.5,"t":16998},{"dx":-90,"dy":25.5,"t":17031},{"dx":-77,"dy":34.5,"t":17089},{"dx":-71,"dy":44.5,"t":17123},{"dx":-18,"dy":55.5,"t":17176},{"dx":-49,"dy":49.5,"t":17207},{"dx":-72,"dy":41.5,"t":17263},{"dx":-44,"dy":40.5,"t":17300},{"dx":-26,"dy":36.5,"t":17359},{"dx":-26,"dy":48.5,"t":17396},{"dx":22,"dy":57.5,"t":17453},{"dx":54,"dy":57.5,"t":17486},{"dx":53,"dy":36.5,"t":17539},{"dx":54,"dy":34.5,"t":17571},{"dx":21,"dy":27.5,"t":17631},{"dx":14,"dy":24.5,"t":17667},{"dx":36,"dy":70.5,"t":17722},{"dx":62,"dy":79.5,"t":17756},{"dx":78,"dy":102.5,"t":17810},{"dx":82,"dy":102.5,"t":17842},{"dx":51,"dy":123.5,"t":17900},{"dx":32,"dy":131.5,"t":17933},{"dx":10,"dy":115.5,"t":17992},{"dx":-5,"dy":98.5,"t":18032},{"dx":-21,"dy":91.5,"t":18094},{"dx":-23,"dy":98.5,"t":18126},{"dx":1,"dy":87.5,"t":18179},{"dx":23,"dy":73.5,"t":18215},{"dx":44,"dy":79.5,"t":18249}],[{"dx":112,"dy":144,"t":19274},{"dx":68,"dy":104,"t":19330},{"dx":51,"dy":94,"t":19368},{"dx":26,"dy":79,"t":19428},{"dx":50,"dy":84,"t":19466},{"dx":109,"dy":55,"t":19526},{"dx":124,"dy":45,"t":19562},{"dx":52,"dy":45,"t":19618},{"dx":22,"dy":54,"t":19652},{"dx":-48,"dy":50,"t":19708},{"dx":-59,"dy":44,"t":19744},{"dx":-15,"dy":43,"t":19800},{"dx":4,"dy":39,"t":19836},{"dx":1,"dy":52,"t":19898},{"dx":11,"dy":49,"t":19933},{"dx":-24,"dy":69,"t":20010},{"dx":-32,"dy":70,"t":20041},{"dx":50,"dy":83,"t":20095},{"dx":91,"dy":76,"t":20128},{"dx":62,"dy":72,"t":20184},{"dx":16,"dy":73,"t":20220},{"dx":5,"dy":86,"t":20275},{"dx":-22,"dy":85,"t":20307},{"dx":-75,"dy":122,"t":20361},{"dx":-85,"dy":144,"t":20399},{"dx":-77,"dy":139,"t":20463},{"dx":-62,"dy":118,"t":20496},{"dx":-37,"dy":102,"t":20559},{"dx":-1,"dy":91,"t":20595},{"dx":48,"dy":54,"t":20653},{"dx":38,"dy":49,"t":20689},{"dx":32,"dy":35,"t":20792},{"dx":14,"dy":22,"t":20826},{"dx":29,"dy":60,"t":20883},{"dx":19,"dy":94,"t":20918},{"dx":-41,"dy":71,"t":20986},{"dx":-90,"dy":47,"t":21031},{"dx":-112,"dy":50,"t":21089},{"dx":-133,"dy":19,"t":21125},{"dx":-137,"dy":12,"t":21183},{"dx":-146,"dy":0,"t":21219},{"dx":-105,"dy":6,"t":21253}],[{"dx":-45,"dy":99,"t":22278},{"dx":-112,"dy":125,"t":22319},{"dx":-59,"dy":236,"t":22385},{"dx":2,"dy":268,"t":22420},{"dx":47,"dy":250,"t":22484},{"dx":74,"dy":217,"t":22518},{"dx":76,"dy":134,"t":22573},{"dx":53,"dy":103,"t":22605},{"dx":48,"dy":66,"t":22661},{"dx":31,"dy":40,"t":22695},{"dx":1,"dy":29,"t":22754},{"dx":8,"dy":21,"t":22790},{"dx":28,"dy":21,"t":22853},{"dx":77,"dy":36,"t":22888},{"dx":102,"dy":55,"t":22946},{"dx":85,"dy":59,"t":22979},{"dx":83,"dy":88,"t":23034},{"dx":71,"dy":104,"t":23066},{"dx":44,"dy":84,"t":23122},{"dx":51,"dy":88,"t":23159},{"dx":30,"dy":78,"t":23220},{"dx":21,"dy":72,"t":23258},{"dx":-22,"dy":51,"t":23315},{"dx":-38,"dy":49,"t":23352},{"dx":-53,"dy":35,"t":23412},{"dx":-53,"dy":30,"t":23447},{"dx":-62,"dy":25,"t":23500},{"dx":-58,"dy":22,"t":23532},{"dx":39,"dy":61,"t":23587},{"dx":69,"dy":69,"t":23620},{"dx":156,"dy":57,"t":23676},{"dx":208,"dy":48,"t":23709},{"dx":233,"dy":44,"t":23764},{"dx":258,"dy":35,"t":23796},{"dx":224,"dy":41,"t":23853},{"dx":190,"dy":53,"t":23887},{"dx":92,"dy":37,"t":23943},{"dx":44,"dy":28,"t":23975},{"dx":-20,"dy":32,"t":24030},{"dx":-40,"dy":41,"t":24065},{"dx":-64,"dy":33,"t":24122},{"dx":-64,"dy":22,"t":24155},{"dx":-57,"dy":60,"t":24210},{"dx":-80,"dy":77,"t":24247},{"dx":-58,"dy":95,"t":24281}],[{"dx":49,"dy":46,"t":25307},{"dx":90,"dy":54,"t":25364},{"dx":110,"dy":64,"t":25398},{"dx":154,"dy":53,"t":25454},{"dx":178,"dy":53,"t":25488},{"dx":177,"dy":46,"t":25546},{"dx":174,"dy":52,"t":25587},{"dx":151,"dy":29,"t":25643},{"dx":140,"dy":9,"t":25678},{"dx":90,"dy":-15,"t":25736},{"dx":57,"dy":-21,"t":25769},{"dx":29,"dy":-29,"t":25822},{"dx":25,"dy":-33,"t":25855},{"dx":49,"dy":-35,"t":25913},{"dx":80,"dy":-36,"t":25952},{"dx":149,"dy":-28,"t":26009},{"dx":188,"dy":-19,"t":26045},{"dx":153,"dy":-19,"t":26102},{"dx":148,"dy":-7,"t":26142},{"dx":163,"dy":20,"t":26196},{"dx":166,"dy":35,"t":26228},{"dx":128,"dy":34,"t":26282},{"dx":109,"dy":26,"t":26320},{"dx":154,"dy":48,"t":26378},{"dx":160,"dy":49,"t":26416},{"dx":120,"dy":93,"t":26471},{"dx":105,"dy":114,"t":26505},{"dx":122,"dy":142,"t":26560},{"dx":131,"dy":139,"t":26592},{"dx":130,"dy":101,"t":26649},{"dx":121,"dy":69,"t":26684},{"dx":93,"dy":25,"t":26742},{"dx":91,"dy":4,"t":26777},{"dx":78,"dy":9,"t":26836},{"dx":53,"dy":17,"t":26869},{"dx":41,"dy":21,"t":26924},{"dx":49,"dy":16,"t":26955},{"dx":76,"dy":24,"t":27009},{"dx":90,"dy":30,"t":27055},{"dx":131,"dy":59,"t":27141},{"dx":142,"dy":60,"t":27177},{"dx":161,"dy":50,"t":27237},{"dx":176,"dy":56,"t":27277},{"dx":151,"dy":42,"t":27313}],[{"dx":79,"dy":74.5,"t":28305},{"dx":92,"dy":66.5,"t":28362},{"dx":102,"dy":60.5,"t":28395},{"dx":88,"dy":50.5,"t":28450},{"dx":95,"dy":47.5,"t":28487},{"dx":117,"dy":50.5,"t":28542},{"dx":92,"dy":51.5,"t":28580},{"dx":105,"dy":52.5,"t":28640},{"dx":109,"dy":57.5,"t":28676},{"dx":75,"dy":64.5,"t":28736},{"dx":48,"dy":65.5,"t":28768},{"dx":25,"dy":69.5,"t":28822},{"dx":31,"dy":66.5,"t":28853},{"dx":74,"dy":60.5,"t":28907},{"dx":77,"dy":53.5,"t":28941},{"dx":80,"dy":54.5,"t":28995},{"dx":83,"dy":58.5,"t":29027},{"dx":56,"dy":49.5,"t":29080},{"dx":69,"dy":49.5,"t":29118},{"dx":6,"dy":39.5,"t":29175},{"dx":-27,"dy":23.5,"t":29211},{"dx":19,"dy":15.5,"t":29275},{"dx":34,"dy":11.5,"t":29311},{"dx":65,"dy":10.5,"t":29370},{"dx":74,"dy":14.5,"t":29406},{"dx":77,"dy":28.5,"t":29467},{"dx":78,"dy":39.5,"t":29503},{"dx":33,"dy":40.5,"t":29562},{"dx":-18,"dy":42.5,"t":29596},{"dx":-43,"dy":51.5,"t":29650},{"dx":-23,"dy":53.5,"t":29688},{"dx":12,"dy":56.5,"t":29743},{"dx":19,"dy":53.5,"t":29775},{"dx":48,"dy":52.5,"t":29831},{"dx":62,"dy":49.5,"t":29866},{"dx":68,"dy":46.5,"t":29921},{"dx":62,"dy":45.5,"t":29953},{"dx":49,"dy":34.5,"t":30008},{"dx":42,"dy":24.5,"t":30040},{"dx":20,"dy":13.5,"t":30095},{"dx":-3,"dy":11.5,"t":30128},{"dx":-36,"dy":45.5,"t":30181},{"dx":-39,"dy":63.5,"t":30212},{"dx":-36,"dy":71.5,"t":30269},{"dx":-28,"dy":65.5,"t":30308},{"dx":-8,"dy":62.5,"t":30341}],[{"dx":15,"dy":59.5,"t":31357},{"dx":-14,"dy":55.5,"t":31389},{"dx":21,"dy":65.5,"t":31443},{"dx":46,"dy":71.5,"t":31474},{"dx":8,"dy":87.5,"t":31537},{"dx":-27,"dy":92.5,"t":31571},{"dx":-46,"dy":89.5,"t":31628},{"dx":-55,"dy":77.5,"t":31662},{"dx":-19,"dy":47.5,"t":31715},{"dx":-4,"dy":46.5,"t":31748},{"dx":-7,"dy":45.5,"t":31802},{"dx":-12,"dy":37.5,"t":31837},{"dx":-28,"dy":44.5,"t":31898},{"dx":-43,"dy":42.5,"t":31933},{"dx":-10,"dy":73.5,"t":32005},{"dx":-23,"dy":100.5,"t":32039},{"dx":-18,"dy":111.5,"t":32099},{"dx":-14,"dy":119.5,"t":32131},{"dx":-6,"dy":127.5,"t":32200},{"dx":-3,"dy":128.5,"t":32237},{"dx":17,"dy":122.5,"t":32298},{"dx":43,"dy":115.5,"t":32330},{"dx":29,"dy":115.5,"t":32386},{"dx":7,"dy":119.5,"t":32422},{"dx":10,"dy":125.5,"t":32477},{"dx":38,"dy":117.5,"t":32514},{"dx":90,"dy":96.5,"t":32568},{"dx":124,"dy":86.5,"t":32607},{"dx":147,"dy":77.5,"t":32663},{"dx":163,"dy":75.5,"t":32700},{"dx":174,"dy":67.5,"t":32756},{"dx":181,"dy":66.5,"t":32792},{"dx":165,"dy":79.5,"t":32848},{"dx":147,"dy":73.5,"t":32878},{"dx":101,"dy":83.5,"t":33004},{"dx":76,"dy":95.5,"t":33041},{"dx":41,"dy":94.5,"t":33098},{"dx":30,"dy":81.5,"t":33135},{"dx":-15,"dy":74.5,"t":33193},{"dx":-45,"dy":77.5,"t":33225},{"dx":-18,"dy":92.5,"t":33279},{"dx":5,"dy":104.5,"t":33318},{"dx":67,"dy":93.5,"t":33360}],[{"dx":-76,"dy":55,"t":34377},{"dx":-92,"dy":46,"t":34434},{"dx":-101,"dy":36,"t":34468},{"dx":-145,"dy":36,"t":34524},{"dx":-165,"dy":41,"t":34557},{"dx":-247,"dy":24,"t":34612},{"dx":-297,"dy":11,"t":34644},{"dx":-281,"dy":21,"t":34698},{"dx":-262,"dy":14,"t":34735},{"dx":-225,"dy":19,"t":34790},{"dx":-223,"dy":17,"t":34823},{"dx":-200,"dy":2,"t":34878},{"dx":-184,"dy":-4,"t":34911},{"dx":-165,"dy":5,"t":34965},{"dx":-162,"dy":22,"t":34998},{"dx":-170,"dy":25,"t":35056},{"dx":-168,"dy":11,"t":35091},{"dx":-190,"dy":3,"t":35149},{"dx":-204,"dy":7,"t":35184},{"dx":-227,"dy":3,"t":35237},{"dx":-216,"dy":-4,"t":35268},{"dx":-152,"dy":-7,"t":35323},{"dx":-130,"dy":-3,"t":35358},{"dx":-128,"dy":21,"t":35416},{"dx":-157,"dy":42,"t":35450},{"dx":-129,"dy":33,"t":35506},{"dx":-113,"dy":18,"t":35543},{"dx":-119,"dy":12,"t":35596},{"dx":-131,"dy":4,"t":35629},{"dx":-137,"dy":11,"t":35689},{"dx":-137,"dy":18,"t":35721},{"dx":-162,"dy":5,"t":35779},{"dx":-160,"dy":5,"t":35812},{"dx":-199,"dy":10,"t":35867},{"dx":-198,"dy":16,"t":35900},{"dx":-215,"dy":27,"t":35958},{"dx":-205,"dy":33,"t":35993},{"dx":-204,"dy":31,"t":36053},{"dx":-214,"dy":22,"t":36090},{"dx":-235,"dy":26,"t":36154},{"dx":-234,"dy":23,"t":36188},{"dx":-261,"dy":33,"t":36253},{"dx":-257,"dy":21,"t":36289},{"dx":-242,"dy":40,"t":36350},{"dx":-243,"dy":38,"t":36363}],[{"dx":9,"dy":88.5,"t":37390},{"dx":15,"dy":72.5,"t":37428},{"dx":56,"dy":69.5,"t":37488},{"dx":59,"dy":65.5,"t":37526},{"dx":48,"dy":76.5,"t":37583},{"dx":46,"dy":102.5,"t":37619},{"dx":36,"dy":113.5,"t":37677},{"dx":37,"dy":115.5,"t":37711},{"dx":31,"dy":107.5,"t":37776},{"dx":24,"dy":99.5,"t":37810},{"dx":-2,"dy":91.5,"t":37864},{"dx":-26,"dy":88.5,"t":37895},{"dx":-15,"dy":75.5,"t":37955},{"dx":-14,"dy":70.5,"t":37991},{"dx":26,"dy":103.5,"t":38052},{"dx":38,"dy":123.5,"t":38087},{"dx":4,"dy":127.5,"t":38144},{"dx":-30,"dy":128.5,"t":38181},{"dx":-28,"dy":121.5,"t":38240},{"dx":-27,"dy":118.5,"t":38272},{"dx":6,"dy":119.5,"t":38324},{"dx":33,"dy":122.5,"t":38360},{"dx":91,"dy":141.5,"t":38418},{"dx":90,"dy":145.5,"t":38451},{"dx":141,"dy":151.5,"t":38509},{"dx":139,"dy":160.5,"t":38541},{"dx":115,"dy":148.5,"t":38593},{"dx":103,"dy":133.5,"t":38624},{"dx":157,"dy":128.5,"t":38685},{"dx":180,"dy":128.5,"t":38717},{"dx":175,"dy":131.5,"t":38778},{"dx":182,"dy":128.5,"t":38813},{"dx":147,"dy":134.5,"t":38869},{"dx":125,"dy":134.5,"t":38903},{"dx":97,"dy":135.5,"t":38956},{"dx":84,"dy":134.5,"t":38990},{"dx":88,"dy":151.5,"t":39050},{"dx":102,"dy":161.5,"t":39132},{"dx":119,"dy":171.5,"t":39188},{"dx":132,"dy":171.5,"t":39223},{"dx":142,"dy":165.5,"t":39283},{"dx":133,"dy":151.5,"t":39318}]],"percent_in_roi":[38.63636363636363,76.08695652173914,93.18181818181817,75.55555555555556,81.81818181818183,86.95652173913044,92.85714285714286,73.33333333333333,52.27272727272727,100,83.72093023255815,26.666666666666668,52.38095238095239],"average_offset":[{"x":178.47727272727272,"y":71.97727272727273,"r":286.5204775298196},{"x":102.97826086956522,"y":-42.32608695652174,"r":77.13882502159495},{"x":42.59090909090909,"y":-41.38636363636363,"r":109.45535625696115},{"x":55.422222222222224,"y":11.133333333333333,"r":59.45228193400564},{"x":15.340909090909092,"y":31.90909090909091,"r":113.62078818903018},{"x":-4.282608695652174,"y":89.23913043478261,"r":98.22045520075193},{"x":-6.357142857142857,"y":67.38095238095238,"r":84.78067536820396},{"x":34.666666666666664,"y":73.73333333333333,"r":76.76055121103693},{"x":116.63636363636364,"y":32.88636363636363,"r":78.13850451456985},{"x":43.56521739130435,"y":47.19565217391305,"r":60.61220004673655},{"x":31.11627906976744,"y":85.12790697674419,"r":55.18205279603331},{"x":-185.82222222222222,"y":19.31111111111111,"r":44.10184621425925},{"x":68.28571428571429,"y":121.71428571428571,"r":94.59783445897342}],"samples_per_sec":"21.65","clicks":25,"pattern":"spread","trial_type":"webgazer-validate","trial_index":31,"time_elapsed":336330,"internal_node_id":"0.0-10.0-3.3","validation_points":[[15,15],[15,85],[25,25],[85,15],[75,25],[37.5,37.5],[75,75],[50,50],[25,75],[37.5,62.5],[62.5,37.5],[85,85],[62.5,62.5]],"user_agent":"Mozilla/5.0 (Macintosh; Intel Mac OS X 10_13_6) AppleWebKit/537.36 (KHTML, like Gecko) Chrome/87.0.4280.141 Safari/537.36","screen_width_px":1440,"screen_height_px":900},{"rt":1571.7150000855327,"stimulus":"\n      <p>Round complete.</p>\n      <p>You can move a little bit, but please try to return you head to the same general location before continuing.</p>\n    ","response":0,"trial_type":"html-button-response","trial_index":32,"time_elapsed":337904,"internal_node_id":"0.0-10.0-4.3","user_agent":"Mozilla/5.0 (Macintosh; Intel Mac OS X 10_13_6) AppleWebKit/537.36 (KHTML, like Gecko) Chrome/87.0.4280.141 Safari/537.36","screen_width_px":1440,"screen_height_px":900},{"trial_type":"webgazer-init-camera","trial_index":33,"time_elapsed":340413,"internal_node_id":"0.0-10.0-5.3","user_agent":"Mozilla/5.0 (Macintosh; Intel Mac OS X 10_13_6) AppleWebKit/537.36 (KHTML, like Gecko) Chrome/87.0.4280.141 Safari/537.36","screen_width_px":1440,"screen_height_px":900},{"rt":1380.9650000184774,"stimulus":"\n      <p>Calibration phase next.</p>\n      <p>Click on the dots.</p>\n    ","response":0,"trial_type":"html-button-response","trial_index":34,"time_elapsed":341796,"internal_node_id":"0.0-10.0-0.4","user_agent":"Mozilla/5.0 (Macintosh; Intel Mac OS X 10_13_6) AppleWebKit/537.36 (KHTML, like Gecko) Chrome/87.0.4280.141 Safari/537.36","screen_width_px":1440,"screen_height_px":900},{"trial_type":"webgazer-calibrate","trial_index":35,"time_elapsed":348431,"internal_node_id":"0.0-10.0-1.4","user_agent":"Mozilla/5.0 (Macintosh; Intel Mac OS X 10_13_6) AppleWebKit/537.36 (KHTML, like Gecko) Chrome/87.0.4280.141 Safari/537.36","screen_width_px":1440,"screen_height_px":900},{"rt":1175.0149996951222,"stimulus":"\n      <p>Validation phase next.</p>\n      <p>Look at the dots.</p>\n    ","response":0,"trial_type":"html-button-response","trial_index":36,"time_elapsed":349607,"internal_node_id":"0.0-10.0-2.4","user_agent":"Mozilla/5.0 (Macintosh; Intel Mac OS X 10_13_6) AppleWebKit/537.36 (KHTML, like Gecko) Chrome/87.0.4280.141 Safari/537.36","screen_width_px":1440,"screen_height_px":900},{"raw_gaze":[[{"dx":15,"dy":175,"t":1100},{"dx":-27,"dy":352,"t":1159},{"dx":-33,"dy":411,"t":1193},{"dx":-45,"dy":414,"t":1250},{"dx":-40,"dy":375,"t":1282},{"dx":-52,"dy":293,"t":1337},{"dx":-51,"dy":250,"t":1388},{"dx":-40,"dy":196,"t":1447},{"dx":-37,"dy":171,"t":1485},{"dx":-28,"dy":97,"t":1540},{"dx":-35,"dy":70,"t":1573},{"dx":-37,"dy":49,"t":1632},{"dx":-43,"dy":40,"t":1667},{"dx":-77,"dy":57,"t":1725},{"dx":-104,"dy":64,"t":1758},{"dx":-101,"dy":97,"t":1811},{"dx":-82,"dy":112,"t":1847},{"dx":-49,"dy":116,"t":1903},{"dx":-32,"dy":121,"t":1938},{"dx":-5,"dy":101,"t":1999},{"dx":5,"dy":98,"t":2033},{"dx":-8,"dy":131,"t":2092},{"dx":-43,"dy":155,"t":2127},{"dx":-40,"dy":181,"t":2181},{"dx":-52,"dy":193,"t":2212},{"dx":-67,"dy":208,"t":2271},{"dx":-79,"dy":210,"t":2307},{"dx":-84,"dy":191,"t":2381},{"dx":-86,"dy":182,"t":2413},{"dx":-131,"dy":161,"t":2469},{"dx":-182,"dy":129,"t":2503},{"dx":-210,"dy":214,"t":2565},{"dx":-205,"dy":251,"t":2604},{"dx":-178,"dy":296,"t":2662},{"dx":-150,"dy":315,"t":2694},{"dx":-164,"dy":312,"t":2749},{"dx":-166,"dy":309,"t":2780},{"dx":-166,"dy":260,"t":2835},{"dx":-161,"dy":239,"t":2873},{"dx":-174,"dy":204,"t":2929},{"dx":-182,"dy":192,"t":2962},{"dx":-214,"dy":176,"t":3016},{"dx":-230,"dy":173,"t":3050},{"dx":-225,"dy":177,"t":3086}],[{"dx":-220,"dy":-3,"t":4079},{"dx":-194,"dy":11,"t":4135},{"dx":-170,"dy":24,"t":4172},{"dx":-130,"dy":30,"t":4234},{"dx":-104,"dy":32,"t":4269},{"dx":-83,"dy":39,"t":4329},{"dx":-69,"dy":34,"t":4369},{"dx":-62,"dy":57,"t":4426},{"dx":-52,"dy":72,"t":4459},{"dx":86,"dy":171,"t":4513},{"dx":209,"dy":250,"t":4544},{"dx":267,"dy":300,"t":4599},{"dx":237,"dy":264,"t":4634},{"dx":222,"dy":201,"t":4691},{"dx":204,"dy":182,"t":4726},{"dx":178,"dy":151,"t":4781},{"dx":160,"dy":138,"t":4813},{"dx":100,"dy":128,"t":4867},{"dx":51,"dy":124,"t":4899},{"dx":-16,"dy":126,"t":4955},{"dx":-28,"dy":136,"t":4990},{"dx":-53,"dy":120,"t":5046},{"dx":-55,"dy":110,"t":5076},{"dx":-67,"dy":88,"t":5133},{"dx":-72,"dy":75,"t":5173},{"dx":-82,"dy":62,"t":5231},{"dx":-86,"dy":60,"t":5277},{"dx":-54,"dy":42,"t":5335},{"dx":-9,"dy":33,"t":5372},{"dx":48,"dy":38,"t":5431},{"dx":63,"dy":38,"t":5467},{"dx":100,"dy":37,"t":5532},{"dx":129,"dy":38,"t":5567},{"dx":170,"dy":31,"t":5622},{"dx":182,"dy":27,"t":5653},{"dx":189,"dy":3,"t":5706},{"dx":188,"dy":-2,"t":5744},{"dx":178,"dy":12,"t":5798},{"dx":178,"dy":19,"t":5834},{"dx":70,"dy":39,"t":5894},{"dx":2,"dy":42,"t":5929},{"dx":-70,"dy":50,"t":5984},{"dx":-101,"dy":48,"t":6018},{"dx":-150,"dy":54,"t":6074},{"dx":-170,"dy":56,"t":6087}],[{"dx":106,"dy":199.5,"t":7134},{"dx":99,"dy":187.5,"t":7134},{"dx":94,"dy":163.5,"t":7170},{"dx":50,"dy":133.5,"t":7227},{"dx":32,"dy":125.5,"t":7260},{"dx":1,"dy":94.5,"t":7317},{"dx":-18,"dy":84.5,"t":7349},{"dx":-29,"dy":75.5,"t":7403},{"dx":-33,"dy":79.5,"t":7436},{"dx":-37,"dy":66.5,"t":7491},{"dx":-48,"dy":55.5,"t":7525},{"dx":-46,"dy":68.5,"t":7580},{"dx":-56,"dy":72.5,"t":7623},{"dx":-46,"dy":74.5,"t":7680},{"dx":-28,"dy":75.5,"t":7714},{"dx":-42,"dy":63.5,"t":7768},{"dx":-57,"dy":58.5,"t":7799},{"dx":-82,"dy":43.5,"t":7854},{"dx":-90,"dy":37.5,"t":7886},{"dx":-91,"dy":41.5,"t":7948},{"dx":-95,"dy":48.5,"t":7980},{"dx":-65,"dy":63.5,"t":8033},{"dx":-64,"dy":72.5,"t":8064},{"dx":-77,"dy":70.5,"t":8123},{"dx":-83,"dy":61.5,"t":8156},{"dx":-64,"dy":56.5,"t":8210},{"dx":-53,"dy":49.5,"t":8242},{"dx":-35,"dy":53.5,"t":8295},{"dx":-20,"dy":59.5,"t":8328},{"dx":4,"dy":71.5,"t":8384},{"dx":13,"dy":78.5,"t":8416},{"dx":-6,"dy":75.5,"t":8471},{"dx":-18,"dy":69.5,"t":8502},{"dx":-36,"dy":56.5,"t":8556},{"dx":-44,"dy":51.5,"t":8590},{"dx":-60,"dy":43.5,"t":8646},{"dx":-74,"dy":39.5,"t":8678},{"dx":-70,"dy":31.5,"t":8730},{"dx":-63,"dy":27.5,"t":8761},{"dx":-48,"dy":28.5,"t":8822},{"dx":-41,"dy":33.5,"t":8857},{"dx":-34,"dy":39.5,"t":8912},{"dx":-33,"dy":41.5,"t":8944},{"dx":-16,"dy":43.5,"t":8997},{"dx":-1,"dy":45.5,"t":9027},{"dx":8,"dy":46.5,"t":9084},{"dx":5,"dy":46.5,"t":9096}],[{"dx":-172,"dy":54,"t":10089},{"dx":-158,"dy":56,"t":10147},{"dx":-138,"dy":57,"t":10180},{"dx":-73,"dy":83,"t":10239},{"dx":-38,"dy":83,"t":10274},{"dx":74,"dy":98,"t":10327},{"dx":145,"dy":115,"t":10361},{"dx":180,"dy":107,"t":10417},{"dx":181,"dy":103,"t":10452},{"dx":153,"dy":92,"t":10508},{"dx":112,"dy":86,"t":10540},{"dx":13,"dy":75,"t":10594},{"dx":-36,"dy":69,"t":10628},{"dx":-69,"dy":104,"t":10687},{"dx":-71,"dy":122,"t":10724},{"dx":-1,"dy":128,"t":10782},{"dx":64,"dy":136,"t":10814},{"dx":134,"dy":139,"t":10867},{"dx":159,"dy":142,"t":10898},{"dx":143,"dy":130,"t":10958},{"dx":106,"dy":114,"t":10991},{"dx":27,"dy":102,"t":11053},{"dx":-20,"dy":93,"t":11089},{"dx":-76,"dy":80,"t":11150},{"dx":-92,"dy":73,"t":11186},{"dx":-117,"dy":81,"t":11245},{"dx":-120,"dy":88,"t":11284},{"dx":-121,"dy":101,"t":11341},{"dx":-126,"dy":106,"t":11376},{"dx":-119,"dy":108,"t":11431},{"dx":-110,"dy":107,"t":11461},{"dx":-86,"dy":101,"t":11522},{"dx":-72,"dy":97,"t":11562},{"dx":-65,"dy":100,"t":11643},{"dx":-69,"dy":106,"t":11678},{"dx":-76,"dy":121,"t":11736},{"dx":-75,"dy":136,"t":11770},{"dx":-76,"dy":137,"t":11825},{"dx":-75,"dy":132,"t":11860},{"dx":-75,"dy":126,"t":11917},{"dx":-81,"dy":127,"t":11950},{"dx":-57,"dy":134,"t":12006},{"dx":-38,"dy":137,"t":12039},{"dx":7,"dy":133,"t":12100},{"dx":25,"dy":118,"t":12115}],[{"dx":185,"dy":207.5,"t":13128},{"dx":188,"dy":191.5,"t":13161},{"dx":145,"dy":180.5,"t":13216},{"dx":128,"dy":171.5,"t":13251},{"dx":108,"dy":142.5,"t":13309},{"dx":95,"dy":130.5,"t":13340},{"dx":87,"dy":124.5,"t":13411},{"dx":87,"dy":127.5,"t":13445},{"dx":64,"dy":108.5,"t":13501},{"dx":45,"dy":91.5,"t":13532},{"dx":-7,"dy":87.5,"t":13586},{"dx":-27,"dy":89.5,"t":13618},{"dx":31,"dy":90.5,"t":13673},{"dx":76,"dy":75.5,"t":13704},{"dx":90,"dy":74.5,"t":13757},{"dx":99,"dy":83.5,"t":13787},{"dx":46,"dy":90.5,"t":13846},{"dx":17,"dy":90.5,"t":13884},{"dx":-2,"dy":84.5,"t":13941},{"dx":-14,"dy":75.5,"t":13975},{"dx":-12,"dy":67.5,"t":14040},{"dx":-11,"dy":58.5,"t":14077},{"dx":-20,"dy":48.5,"t":14133},{"dx":-32,"dy":43.5,"t":14165},{"dx":-58,"dy":25.5,"t":14219},{"dx":-81,"dy":16.5,"t":14248},{"dx":-69,"dy":5.5,"t":14307},{"dx":-82,"dy":4.5,"t":14348},{"dx":-81,"dy":-5.5,"t":14415},{"dx":-106,"dy":-5.5,"t":14448},{"dx":-103,"dy":-2.5,"t":14506},{"dx":-100,"dy":7.5,"t":14541},{"dx":-70,"dy":8.5,"t":14599},{"dx":-72,"dy":8.5,"t":14630},{"dx":-50,"dy":26.5,"t":14682},{"dx":-26,"dy":36.5,"t":14715},{"dx":1,"dy":61.5,"t":14771},{"dx":-6,"dy":52.5,"t":14806},{"dx":11,"dy":81.5,"t":14862},{"dx":7,"dy":70.5,"t":14893},{"dx":-16,"dy":41.5,"t":14947},{"dx":-1,"dy":28.5,"t":14979},{"dx":9,"dy":60.5,"t":15035},{"dx":16,"dy":65.5,"t":15067},{"dx":-27,"dy":57.5,"t":15129},{"dx":-45,"dy":56.5,"t":15141}],[{"dx":160,"dy":23,"t":16152},{"dx":154,"dy":29,"t":16184},{"dx":219,"dy":11,"t":16240},{"dx":256,"dy":-5,"t":16273},{"dx":270,"dy":-13,"t":16327},{"dx":272,"dy":-13,"t":16359},{"dx":284,"dy":-19,"t":16412},{"dx":292,"dy":-23,"t":16447},{"dx":271,"dy":-42,"t":16502},{"dx":260,"dy":-55,"t":16537},{"dx":234,"dy":-71,"t":16592},{"dx":224,"dy":-71,"t":16623},{"dx":228,"dy":-54,"t":16681},{"dx":210,"dy":-52,"t":16717},{"dx":242,"dy":-48,"t":16774},{"dx":263,"dy":-50,"t":16806},{"dx":253,"dy":-45,"t":16861},{"dx":246,"dy":-45,"t":16897},{"dx":206,"dy":-28,"t":16953},{"dx":190,"dy":-16,"t":16984},{"dx":172,"dy":-15,"t":17043},{"dx":178,"dy":-21,"t":17075},{"dx":176,"dy":-43,"t":17131},{"dx":176,"dy":-55,"t":17164},{"dx":219,"dy":-49,"t":17219},{"dx":232,"dy":-52,"t":17251},{"dx":217,"dy":-60,"t":17305},{"dx":200,"dy":-58,"t":17339},{"dx":196,"dy":-48,"t":17395},{"dx":184,"dy":-31,"t":17432},{"dx":215,"dy":-28,"t":17508},{"dx":196,"dy":-22,"t":17544},{"dx":211,"dy":-19,"t":17601},{"dx":218,"dy":-17,"t":17634},{"dx":209,"dy":-18,"t":17689},{"dx":196,"dy":-19,"t":17728},{"dx":188,"dy":-19,"t":17781},{"dx":190,"dy":-18,"t":17812},{"dx":187,"dy":-29,"t":17867},{"dx":186,"dy":-35,"t":17901},{"dx":205,"dy":-46,"t":17965},{"dx":195,"dy":-44,"t":18004},{"dx":164,"dy":-36,"t":18059},{"dx":146,"dy":-30,"t":18089},{"dx":124,"dy":-17,"t":18149},{"dx":119,"dy":-15,"t":18164}],[{"dx":312,"dy":-28,"t":19164},{"dx":339,"dy":-38,"t":19255},{"dx":342,"dy":-46,"t":19288},{"dx":348,"dy":-51,"t":19341},{"dx":350,"dy":-49,"t":19372},{"dx":372,"dy":-44,"t":19428},{"dx":389,"dy":-41,"t":19459},{"dx":392,"dy":-86,"t":19513},{"dx":388,"dy":-104,"t":19543},{"dx":385,"dy":-87,"t":19602},{"dx":380,"dy":-80,"t":19639},{"dx":383,"dy":-90,"t":19699},{"dx":385,"dy":-90,"t":19733},{"dx":386,"dy":-78,"t":19790},{"dx":378,"dy":-67,"t":19823},{"dx":387,"dy":-59,"t":19877},{"dx":394,"dy":-60,"t":19907},{"dx":355,"dy":-58,"t":19961},{"dx":331,"dy":-60,"t":19993},{"dx":316,"dy":-58,"t":20048},{"dx":324,"dy":-53,"t":20080},{"dx":323,"dy":-58,"t":20136},{"dx":317,"dy":-64,"t":20194},{"dx":356,"dy":-67,"t":20254},{"dx":371,"dy":-72,"t":20286},{"dx":409,"dy":-62,"t":20339},{"dx":426,"dy":-56,"t":20371},{"dx":404,"dy":-39,"t":20429},{"dx":385,"dy":-35,"t":20463},{"dx":379,"dy":-74,"t":20524},{"dx":370,"dy":-92,"t":20558},{"dx":389,"dy":-61,"t":20615},{"dx":399,"dy":-50,"t":20649},{"dx":393,"dy":-43,"t":20703},{"dx":382,"dy":-46,"t":20734},{"dx":380,"dy":-52,"t":20789},{"dx":380,"dy":-57,"t":20822},{"dx":401,"dy":-59,"t":20876},{"dx":418,"dy":-59,"t":20908},{"dx":431,"dy":-40,"t":20963},{"dx":438,"dy":-32,"t":20997},{"dx":414,"dy":-28,"t":21054},{"dx":386,"dy":-31,"t":21086},{"dx":377,"dy":-53,"t":21141},{"dx":390,"dy":-69,"t":21176},{"dx":389,"dy":-70,"t":21209}],[{"dx":-214,"dy":-48,"t":22249},{"dx":-190,"dy":-46,"t":22302},{"dx":-180,"dy":-44,"t":22336},{"dx":-183,"dy":-54,"t":22391},{"dx":-171,"dy":-58,"t":22424},{"dx":-176,"dy":-55,"t":22478},{"dx":-193,"dy":-52,"t":22509},{"dx":-212,"dy":-40,"t":22567},{"dx":-215,"dy":-31,"t":22610},{"dx":-223,"dy":-45,"t":22664},{"dx":-220,"dy":-52,"t":22695},{"dx":-208,"dy":-33,"t":22754},{"dx":-200,"dy":-27,"t":22792},{"dx":-203,"dy":-22,"t":22852},{"dx":-212,"dy":-23,"t":22888},{"dx":-214,"dy":-9,"t":22945},{"dx":-210,"dy":2,"t":22977},{"dx":-186,"dy":-17,"t":23032},{"dx":-175,"dy":-23,"t":23066},{"dx":-172,"dy":-24,"t":23121},{"dx":-169,"dy":-22,"t":23156},{"dx":-192,"dy":-28,"t":23214},{"dx":-195,"dy":-28,"t":23247},{"dx":-214,"dy":-36,"t":23301},{"dx":-228,"dy":-42,"t":23331},{"dx":-253,"dy":-43,"t":23386},{"dx":-253,"dy":-40,"t":23421},{"dx":-249,"dy":-53,"t":23476},{"dx":-239,"dy":-59,"t":23507},{"dx":-227,"dy":-40,"t":23566},{"dx":-228,"dy":-36,"t":23596},{"dx":-204,"dy":-19,"t":23652},{"dx":-200,"dy":-14,"t":23684},{"dx":-196,"dy":-9,"t":23736},{"dx":-188,"dy":-4,"t":23770},{"dx":-172,"dy":5,"t":23826},{"dx":-164,"dy":9,"t":23860},{"dx":-168,"dy":0,"t":23918},{"dx":-176,"dy":-5,"t":23954},{"dx":-188,"dy":-11,"t":24018},{"dx":-200,"dy":-9,"t":24058},{"dx":-209,"dy":-12,"t":24141},{"dx":-207,"dy":-14,"t":24172},{"dx":-202,"dy":-28,"t":24238},{"dx":-201,"dy":-37,"t":24253}],[{"dx":-82,"dy":-71,"t":25277},{"dx":-95,"dy":-64,"t":25311},{"dx":-84,"dy":-78,"t":25390},{"dx":-69,"dy":-79,"t":25424},{"dx":-33,"dy":-43,"t":25481},{"dx":-29,"dy":-32,"t":25513},{"dx":-24,"dy":-16,"t":25568},{"dx":-30,"dy":-15,"t":25598},{"dx":-47,"dy":1,"t":25657},{"dx":-57,"dy":15,"t":25688},{"dx":-81,"dy":22,"t":25744},{"dx":-100,"dy":-1,"t":25777},{"dx":-108,"dy":14,"t":25841},{"dx":-110,"dy":24,"t":25872},{"dx":-101,"dy":4,"t":25925},{"dx":-102,"dy":-17,"t":25956},{"dx":-8