[{"rt":2247.759999940172,"stimulus":"\n      <p>You can elect whether to include your data in our research dataset.</p>\n    ","response":0,"question":"consent","trial_type":"html-button-response","trial_index":0,"time_elapsed":2254,"internal_node_id":"0.0-0.0","user_agent":"Mozilla/5.0 (Macintosh; Intel Mac OS X 11_2_0) AppleWebKit/537.36 (KHTML, like Gecko) Chrome/88.0.4324.150 Safari/537.36","screen_width_px":1440,"screen_height_px":900},{"rt":1158.9799999492243,"stimulus":"\n      <p>This experiment uses your camera for eye tracking.</p>\n      <p>No video is saved from this experiment. The only data recorded are predictions about where you are looking.</p>\n      <p>Before we begin, there are a few things to do that can improve the accuracy of the eye tracking.</p>\n    ","response":0,"trial_type":"html-button-response","trial_index":1,"time_elapsed":3414,"internal_node_id":"0.0-1.0","user_agent":"Mozilla/5.0 (Macintosh; Intel Mac OS X 11_2_0) AppleWebKit/537.36 (KHTML, like Gecko) Chrome/88.0.4324.150 Safari/537.36","screen_width_px":1440,"screen_height_px":900},{"rt":532.6800000621006,"stimulus":"\n      <p>If you wear glasses and can complete the task without them, please remove your glasses.</p>\n    ","response":0,"trial_type":"html-button-response","trial_index":2,"time_elapsed":3948,"internal_node_id":"0.0-2.0","user_agent":"Mozilla/5.0 (Macintosh; Intel Mac OS X 11_2_0) AppleWebKit/537.36 (KHTML, like Gecko) Chrome/88.0.4324.150 Safari/537.36","screen_width_px":1440,"screen_height_px":900},{"rt":982.105000060983,"stimulus":"\n      <p>Please close additional browser tabs and apps running in the background.<br>The eye tracker works best when there are fewer things running at the same time.</p>\n    ","response":0,"trial_type":"html-button-response","trial_index":3,"time_elapsed":4931,"internal_node_id":"0.0-3.0","user_agent":"Mozilla/5.0 (Macintosh; Intel Mac OS X 11_2_0) AppleWebKit/537.36 (KHTML, like Gecko) Chrome/88.0.4324.150 Safari/537.36","screen_width_px":1440,"screen_height_px":900},{"rt":447.7999999653548,"stimulus":"\n      <p>Try to avoid bright lights behind you.<br>The eye tracker works best if your face is well lit from the front.<br>If you can, adjust the lighting in your room.</p>\n    ","response":0,"trial_type":"html-button-response","trial_index":4,"time_elapsed":5380,"internal_node_id":"0.0-4.0","user_agent":"Mozilla/5.0 (Macintosh; Intel Mac OS X 11_2_0) AppleWebKit/537.36 (KHTML, like Gecko) Chrome/88.0.4324.150 Safari/537.36","screen_width_px":1440,"screen_height_px":900},{"success":true,"trial_type":"fullscreen","trial_index":5,"time_elapsed":7366,"internal_node_id":"0.0-5.0","user_agent":"Mozilla/5.0 (Macintosh; Intel Mac OS X 11_2_0) AppleWebKit/537.36 (KHTML, like Gecko) Chrome/88.0.4324.150 Safari/537.36","screen_width_px":1440,"screen_height_px":900},{"rt":1060.9149999218062,"stimulus":"\n      <p>In order to participate you must allow the experiment to use your camera.</p>\n      <p>You will be prompted to do this on the next screen.</p>\n    ","response":0,"trial_type":"html-button-response","trial_index":6,"time_elapsed":8428,"internal_node_id":"0.0-6.0","user_agent":"Mozilla/5.0 (Macintosh; Intel Mac OS X 11_2_0) AppleWebKit/537.36 (KHTML, like Gecko) Chrome/88.0.4324.150 Safari/537.36","screen_width_px":1440,"screen_height_px":900},{"trial_type":"webgazer-init-camera","trial_index":7,"time_elapsed":17622,"internal_node_id":"0.0-7.0","user_agent":"Mozilla/5.0 (Macintosh; Intel Mac OS X 11_2_0) AppleWebKit/537.36 (KHTML, like Gecko) Chrome/88.0.4324.150 Safari/537.36","screen_width_px":1440,"screen_height_px":900},{"rt":620.3450000612065,"stimulus":"\n      <p>Now you'll complete a series of calibrations and validations.</p>\n      <p>The calibration will be reset after each round, so it is OK to move a little bit<br>in between the end of a validation and the start of the next calibration.</p>\n      <p>Please keep your head still during each round.</p>\n    ","response":0,"trial_type":"html-button-response","trial_index":8,"time_elapsed":18243,"internal_node_id":"0.0-8.0","user_agent":"Mozilla/5.0 (Macintosh; Intel Mac OS X 11_2_0) AppleWebKit/537.36 (KHTML, like Gecko) Chrome/88.0.4324.150 Safari/537.36","screen_width_px":1440,"screen_height_px":900},{"rt":613.3799999952316,"stimulus":"\n      <p>During the calibration phase, please look at each dot and click on it.</p>\n      <p>During the validation phase, just look at each dot while it is on the screen.</p>\n    ","response":0,"trial_type":"html-button-response","trial_index":9,"time_elapsed":18858,"internal_node_id":"0.0-9.0","user_agent":"Mozilla/5.0 (Macintosh; Intel Mac OS X 11_2_0) AppleWebKit/537.36 (KHTML, like Gecko) Chrome/88.0.4324.150 Safari/537.36","screen_width_px":1440,"screen_height_px":900},{"rt":595.6749999895692,"stimulus":"\n      <p>Calibration phase next.</p>\n      <p>Click on the dots.</p>\n    ","response":0,"trial_type":"html-button-response","trial_index":10,"time_elapsed":19454,"internal_node_id":"0.0-10.0-0.0","user_agent":"Mozilla/5.0 (Macintosh; Intel Mac OS X 11_2_0) AppleWebKit/537.36 (KHTML, like Gecko) Chrome/88.0.4324.150 Safari/537.36","screen_width_px":1440,"screen_height_px":900},{"trial_type":"webgazer-calibrate","trial_index":11,"time_elapsed":25303,"internal_node_id":"0.0-10.0-1.0","user_agent":"Mozilla/5.0 (Macintosh; Intel Mac OS X 11_2_0) AppleWebKit/537.36 (KHTML, like Gecko) Chrome/88.0.4324.150 Safari/537.36","screen_width_px":1440,"screen_height_px":900},{"rt":605.0500000128523,"stimulus":"\n      <p>Validation phase next.</p>\n      <p>Look at the dots.</p>\n    ","response":0,"trial_type":"html-button-response","trial_index":12,"time_elapsed":25908,"internal_node_id":"0.0-10.0-2.0","user_agent":"Mozilla/5.0 (Macintosh; Intel Mac OS X 11_2_0) AppleWebKit/537.36 (KHTML, like Gecko) Chrome/88.0.4324.150 Safari/537.36","screen_width_px":1440,"screen_height_px":900},{"raw_gaze":[[{"dx":-305,"dy":247,"t":1096},{"dx":-345,"dy":288,"t":1150},{"dx":-301,"dy":299,"t":1208},{"dx":-263,"dy":318,"t":1242},{"dx":-292,"dy":360,"t":1298},{"dx":-325,"dy":366,"t":1332},{"dx":-390,"dy":373,"t":1392},{"dx":-421,"dy":383,"t":1428},{"dx":-387,"dy":316,"t":1487},{"dx":-350,"dy":274,"t":1524},{"dx":-341,"dy":218,"t":1585},{"dx":-361,"dy":170,"t":1623},{"dx":-329,"dy":181,"t":1683},{"dx":-292,"dy":196,"t":1721},{"dx":-300,"dy":215,"t":1780},{"dx":-295,"dy":244,"t":1826},{"dx":-366,"dy":251,"t":1932},{"dx":-398,"dy":262,"t":1967},{"dx":-430,"dy":261,"t":2027},{"dx":-447,"dy":252,"t":2064},{"dx":-383,"dy":207,"t":2139},{"dx":-322,"dy":158,"t":2172},{"dx":-343,"dy":185,"t":2235},{"dx":-355,"dy":200,"t":2270},{"dx":-311,"dy":220,"t":2327},{"dx":-303,"dy":219,"t":2366},{"dx":-338,"dy":263,"t":2426},{"dx":-345,"dy":287,"t":2462},{"dx":-403,"dy":321,"t":2521},{"dx":-432,"dy":334,"t":2560},{"dx":-431,"dy":358,"t":2622},{"dx":-457,"dy":356,"t":2661},{"dx":-439,"dy":379,"t":2721},{"dx":-463,"dy":365,"t":2757},{"dx":-420,"dy":369,"t":2814},{"dx":-430,"dy":366,"t":2851},{"dx":-362,"dy":359,"t":2907},{"dx":-334,"dy":357,"t":2941},{"dx":-329,"dy":360,"t":2998},{"dx":-310,"dy":366,"t":3033},{"dx":-291,"dy":351,"t":3091},{"dx":-287,"dy":348,"t":3111}],[{"dx":-365,"dy":11,"t":4137},{"dx":-359,"dy":-7,"t":4175},{"dx":-358,"dy":-22,"t":4236},{"dx":-357,"dy":-33,"t":4270},{"dx":-362,"dy":-93,"t":4328},{"dx":-358,"dy":-138,"t":4363},{"dx":-361,"dy":-153,"t":4421},{"dx":-333,"dy":-152,"t":4458},{"dx":-346,"dy":-130,"t":4513},{"dx":-361,"dy":-125,"t":4546},{"dx":-366,"dy":-107,"t":4607},{"dx":-368,"dy":-94,"t":4641},{"dx":-363,"dy":-87,"t":4701},{"dx":-367,"dy":-80,"t":4735},{"dx":-287,"dy":-87,"t":4794},{"dx":-281,"dy":-102,"t":4832},{"dx":-271,"dy":-80,"t":4890},{"dx":-281,"dy":-94,"t":4924},{"dx":-226,"dy":-128,"t":4980},{"dx":-247,"dy":-121,"t":5018},{"dx":-257,"dy":-82,"t":5079},{"dx":-251,"dy":-63,"t":5135},{"dx":-239,"dy":-58,"t":5195},{"dx":-209,"dy":-59,"t":5236},{"dx":-168,"dy":-141,"t":5295},{"dx":-132,"dy":-162,"t":5334},{"dx":-114,"dy":-172,"t":5394},{"dx":-128,"dy":-178,"t":5430},{"dx":-123,"dy":-154,"t":5492},{"dx":-126,"dy":-149,"t":5528},{"dx":-144,"dy":-93,"t":5584},{"dx":-198,"dy":-67,"t":5618},{"dx":-222,"dy":3,"t":5676},{"dx":-243,"dy":23,"t":5711},{"dx":-244,"dy":15,"t":5766},{"dx":-247,"dy":-7,"t":5800},{"dx":-240,"dy":-48,"t":5860},{"dx":-222,"dy":-91,"t":5898},{"dx":-194,"dy":-79,"t":5957},{"dx":-148,"dy":-106,"t":5992},{"dx":-182,"dy":-68,"t":6050},{"dx":-208,"dy":-70,"t":6092},{"dx":-350,"dy":-53,"t":6141}],[{"dx":136,"dy":287,"t":7165},{"dx":151,"dy":299,"t":7201},{"dx":136,"dy":309,"t":7257},{"dx":105,"dy":297,"t":7292},{"dx":106,"dy":298,"t":7348},{"dx":110,"dy":292,"t":7384},{"dx":178,"dy":283,"t":7447},{"dx":218,"dy":269,"t":7481},{"dx":202,"dy":262,"t":7539},{"dx":203,"dy":240,"t":7574},{"dx":222,"dy":253,"t":7634},{"dx":244,"dy":252,"t":7671},{"dx":205,"dy":280,"t":7728},{"dx":214,"dy":300,"t":7761},{"dx":142,"dy":307,"t":7822},{"dx":131,"dy":333,"t":7857},{"dx":115,"dy":321,"t":7912},{"dx":131,"dy":343,"t":7945},{"dx":80,"dy":319,"t":8004},{"dx":78,"dy":334,"t":8043},{"dx":66,"dy":326,"t":8100},{"dx":86,"dy":322,"t":8162},{"dx":85,"dy":334,"t":8221},{"dx":105,"dy":339,"t":8257},{"dx":61,"dy":310,"t":8314},{"dx":53,"dy":304,"t":8349},{"dx":50,"dy":281,"t":8407},{"dx":38,"dy":272,"t":8442},{"dx":70,"dy":258,"t":8501},{"dx":88,"dy":240,"t":8535},{"dx":107,"dy":240,"t":8591},{"dx":123,"dy":228,"t":8624},{"dx":107,"dy":238,"t":8678},{"dx":97,"dy":202,"t":8713},{"dx":61,"dy":187,"t":8769},{"dx":44,"dy":171,"t":8803},{"dx":31,"dy":179,"t":8857},{"dx":19,"dy":173,"t":8902},{"dx":62,"dy":198,"t":9016},{"dx":79,"dy":201,"t":9050},{"dx":85,"dy":239,"t":9112},{"dx":88,"dy":270,"t":9144}],[{"dx":-337,"dy":-119,"t":10137},{"dx":-312,"dy":-123,"t":10224},{"dx":-316,"dy":-127,"t":10258},{"dx":-312,"dy":-124,"t":10313},{"dx":-307,"dy":-132,"t":10349},{"dx":-313,"dy":-104,"t":10407},{"dx":-318,"dy":-96,"t":10442},{"dx":-326,"dy":-97,"t":10496},{"dx":-329,"dy":-104,"t":10534},{"dx":-330,"dy":-113,"t":10596},{"dx":-339,"dy":-119,"t":10634},{"dx":-319,"dy":-117,"t":10690},{"dx":-305,"dy":-116,"t":10726},{"dx":-328,"dy":-112,"t":10787},{"dx":-350,"dy":-119,"t":10826},{"dx":-359,"dy":-125,"t":10883},{"dx":-372,"dy":-131,"t":10918},{"dx":-360,"dy":-116,"t":10975},{"dx":-352,"dy":-102,"t":11014},{"dx":-343,"dy":-92,"t":11075},{"dx":-337,"dy":-92,"t":11111},{"dx":-344,"dy":-96,"t":11182},{"dx":-352,"dy":-103,"t":11219},{"dx":-334,"dy":-118,"t":11276},{"dx":-318,"dy":-130,"t":11315},{"dx":-340,"dy":-131,"t":11370},{"dx":-343,"dy":-138,"t":11406},{"dx":-347,"dy":-113,"t":11469},{"dx":-353,"dy":-107,"t":11505},{"dx":-334,"dy":-100,"t":11565},{"dx":-324,"dy":-95,"t":11605},{"dx":-322,"dy":-84,"t":11664},{"dx":-331,"dy":-84,"t":11700},{"dx":-334,"dy":-77,"t":11753},{"dx":-329,"dy":-70,"t":11792},{"dx":-327,"dy":-78,"t":11850},{"dx":-327,"dy":-73,"t":11889},{"dx":-305,"dy":-69,"t":11943},{"dx":-296,"dy":-69,"t":11977},{"dx":-301,"dy":-74,"t":12039},{"dx":-311,"dy":-78,"t":12073},{"dx":-336,"dy":-78,"t":12147},{"dx":-336,"dy":-79,"t":12163}],[{"dx":-54,"dy":167.5,"t":13151},{"dx":-81,"dy":185.5,"t":13236},{"dx":-78,"dy":186.5,"t":13271},{"dx":-80,"dy":199.5,"t":13326},{"dx":-87,"dy":208.5,"t":13365},{"dx":-114,"dy":208.5,"t":13424},{"dx":-125,"dy":204.5,"t":13458},{"dx":-109,"dy":188.5,"t":13514},{"dx":-87,"dy":178.5,"t":13551},{"dx":-57,"dy":193.5,"t":13610},{"dx":-38,"dy":190.5,"t":13645},{"dx":-48,"dy":218.5,"t":13702},{"dx":-51,"dy":223.5,"t":13736},{"dx":-83,"dy":236.5,"t":13799},{"dx":-96,"dy":240.5,"t":13833},{"dx":-143,"dy":248.5,"t":13895},{"dx":-174,"dy":252.5,"t":13932},{"dx":-134,"dy":234.5,"t":13989},{"dx":-149,"dy":234.5,"t":14029},{"dx":-144,"dy":225.5,"t":14086},{"dx":-148,"dy":228.5,"t":14142},{"dx":-154,"dy":228.5,"t":14200},{"dx":-159,"dy":231.5,"t":14238},{"dx":-138,"dy":226.5,"t":14297},{"dx":-127,"dy":225.5,"t":14335},{"dx":-122,"dy":220.5,"t":14392},{"dx":-123,"dy":219.5,"t":14427},{"dx":-100,"dy":228.5,"t":14481},{"dx":-81,"dy":227.5,"t":14517},{"dx":-58,"dy":212.5,"t":14573},{"dx":-52,"dy":201.5,"t":14608},{"dx":-81,"dy":209.5,"t":14662},{"dx":-84,"dy":211.5,"t":14697},{"dx":-106,"dy":218.5,"t":14757},{"dx":-111,"dy":221.5,"t":14791},{"dx":-105,"dy":224.5,"t":14847},{"dx":-96,"dy":225.5,"t":14883},{"dx":-90,"dy":216.5,"t":14941},{"dx":-92,"dy":209.5,"t":14978},{"dx":-117,"dy":225.5,"t":15039},{"dx":-119,"dy":225.5,"t":15077},{"dx":-117,"dy":230.5,"t":15148},{"dx":-108,"dy":229.5,"t":15163}],[{"dx":54,"dy":207.5,"t":16142},{"dx":24,"dy":212.5,"t":16238},{"dx":12,"dy":214.5,"t":16276},{"dx":-15,"dy":219.5,"t":16337},{"dx":-19,"dy":225.5,"t":16374},{"dx":-16,"dy":231.5,"t":16435},{"dx":-11,"dy":231.5,"t":16475},{"dx":-10,"dy":212.5,"t":16536},{"dx":-17,"dy":201.5,"t":16570},{"dx":-10,"dy":195.5,"t":16626},{"dx":-16,"dy":199.5,"t":16662},{"dx":-2,"dy":191.5,"t":16722},{"dx":1,"dy":183.5,"t":16757},{"dx":-2,"dy":180.5,"t":16813},{"dx":-6,"dy":184.5,"t":16849},{"dx":-42,"dy":182.5,"t":16905},{"dx":-24,"dy":181.5,"t":16939},{"dx":-10,"dy":182.5,"t":16994},{"dx":-1,"dy":183.5,"t":17030},{"dx":-10,"dy":206.5,"t":17090},{"dx":-21,"dy":217.5,"t":17147},{"dx":-38,"dy":229.5,"t":17205},{"dx":-45,"dy":231.5,"t":17241},{"dx":-47,"dy":233.5,"t":17298},{"dx":-43,"dy":233.5,"t":17334},{"dx":-64,"dy":203.5,"t":17392},{"dx":-75,"dy":187.5,"t":17432},{"dx":-7,"dy":164.5,"t":17488},{"dx":17,"dy":158.5,"t":17523},{"dx":61,"dy":161.5,"t":17580},{"dx":81,"dy":169.5,"t":17617},{"dx":103,"dy":171.5,"t":17675},{"dx":106,"dy":167.5,"t":17710},{"dx":112,"dy":163.5,"t":17768},{"dx":116,"dy":164.5,"t":17802},{"dx":156,"dy":168.5,"t":17860},{"dx":143,"dy":163.5,"t":17894},{"dx":109,"dy":167.5,"t":17955},{"dx":91,"dy":175.5,"t":17990},{"dx":109,"dy":165.5,"t":18046},{"dx":99,"dy":177.5,"t":18084},{"dx":72,"dy":187.5,"t":18152},{"dx":83,"dy":196.5,"t":18165}],[{"dx":-84,"dy":147,"t":19174},{"dx":-50,"dy":158,"t":19267},{"dx":-13,"dy":166,"t":19301},{"dx":73,"dy":161,"t":19358},{"dx":111,"dy":154,"t":19393},{"dx":156,"dy":155,"t":19449},{"dx":185,"dy":165,"t":19486},{"dx":155,"dy":179,"t":19543},{"dx":131,"dy":190,"t":19579},{"dx":102,"dy":211,"t":19635},{"dx":88,"dy":218,"t":19670},{"dx":72,"dy":229,"t":19726},{"dx":63,"dy":237,"t":19760},{"dx":34,"dy":233,"t":19817},{"dx":21,"dy":231,"t":19853},{"dx":-6,"dy":226,"t":19910},{"dx":-9,"dy":228,"t":19945},{"dx":-38,"dy":217,"t":20006},{"dx":-43,"dy":219,"t":20044},{"dx":-40,"dy":217,"t":20103},{"dx":-43,"dy":215,"t":20153},{"dx":-20,"dy":218,"t":20214},{"dx":-12,"dy":221,"t":20253},{"dx":-5,"dy":213,"t":20309},{"dx":-6,"dy":215,"t":20345},{"dx":10,"dy":220,"t":20407},{"dx":13,"dy":226,"t":20445},{"dx":11,"dy":208,"t":20505},{"dx":10,"dy":194,"t":20540},{"dx":28,"dy":194,"t":20600},{"dx":41,"dy":197,"t":20642},{"dx":36,"dy":179,"t":20702},{"dx":29,"dy":170,"t":20737},{"dx":40,"dy":178,"t":20792},{"dx":42,"dy":186,"t":20827},{"dx":29,"dy":197,"t":20890},{"dx":5,"dy":192,"t":20926},{"dx":19,"dy":173,"t":20983},{"dx":25,"dy":168,"t":21024},{"dx":25,"dy":159,"t":21084},{"dx":21,"dy":156,"t":21138},{"dx":29,"dy":156,"t":21198},{"dx":38,"dy":159,"t":21216}],[{"dx":256,"dy":5,"t":22210},{"dx":227,"dy":7,"t":22388},{"dx":209,"dy":10,"t":22427},{"dx":203,"dy":10,"t":22481},{"dx":211,"dy":17,"t":22517},{"dx":222,"dy":25,"t":22574},{"dx":228,"dy":30,"t":22608},{"dx":226,"dy":8,"t":22664},{"dx":234,"dy":-2,"t":22702},{"dx":266,"dy":-10,"t":22762},{"dx":288,"dy":-21,"t":22798},{"dx":290,"dy":-22,"t":22853},{"dx":307,"dy":-19,"t":22891},{"dx":298,"dy":-22,"t":22949},{"dx":317,"dy":-17,"t":22984},{"dx":334,"dy":-22,"t":23038},{"dx":361,"dy":-20,"t":23072},{"dx":363,"dy":-28,"t":23150},{"dx":378,"dy":-30,"t":23188},{"dx":378,"dy":-24,"t":23252},{"dx":386,"dy":-31,"t":23287},{"dx":345,"dy":-52,"t":23349},{"dx":354,"dy":-60,"t":23383},{"dx":369,"dy":-66,"t":23437},{"dx":376,"dy":-62,"t":23475},{"dx":339,"dy":-54,"t":23533},{"dx":378,"dy":-35,"t":23572},{"dx":343,"dy":-49,"t":23633},{"dx":363,"dy":-33,"t":23670},{"dx":351,"dy":-46,"t":23725},{"dx":347,"dy":-50,"t":23762},{"dx":293,"dy":-56,"t":23816},{"dx":251,"dy":-58,"t":23854},{"dx":293,"dy":-88,"t":23912},{"dx":276,"dy":-90,"t":23946},{"dx":312,"dy":-99,"t":24006},{"dx":320,"dy":-102,"t":24043},{"dx":349,"dy":-99,"t":24099},{"dx":348,"dy":-104,"t":24155},{"dx":353,"dy":-93,"t":24214},{"dx":360,"dy":-95,"t":24231}],[{"dx":-278,"dy":273,"t":25255},{"dx":-238,"dy":262,"t":25298},{"dx":-233,"dy":263,"t":25354},{"dx":-237,"dy":265,"t":25392},{"dx":-312,"dy":296,"t":25448},{"dx":-323,"dy":296,"t":25483},{"dx":-330,"dy":260,"t":25541},{"dx":-350,"dy":257,"t":25579},{"dx":-360,"dy":240,"t":25637},{"dx":-378,"dy":225,"t":25671},{"dx":-357,"dy":231,"t":25727},{"dx":-358,"dy":233,"t":25761},{"dx":-361,"dy":310,"t":25826},{"dx":-359,"dy":348,"t":25866},{"dx":-370,"dy":362,"t":25920},{"dx":-370,"dy":356,"t":25955},{"dx":-320,"dy":323,"t":26017},{"dx":-288,"dy":298,"t":26054},{"dx":-310,"dy":289,"t":26108},{"dx":-344,"dy":298,"t":26170},{"dx":-324,"dy":350,"t":26227},{"dx":-318,"dy":367,"t":26260},{"dx":-313,"dy":388,"t":26317},{"dx":-296,"dy":393,"t":26358},{"dx":-319,"dy":386,"t":26416},{"dx":-320,"dy":367,"t":26455},{"dx":-346,"dy":363,"t":26511},{"dx":-361,"dy":355,"t":26544},{"dx":-358,"dy":348,"t":26600},{"dx":-373,"dy":343,"t":26635},{"dx":-323,"dy":338,"t":26695},{"dx":-302,"dy":339,"t":26730},{"dx":-309,"dy":358,"t":26786},{"dx":-331,"dy":358,"t":26820},{"dx":-370,"dy":379,"t":26880},{"dx":-386,"dy":392,"t":26916},{"dx":-310,"dy":372,"t":26977},{"dx":-281,"dy":370,"t":27012},{"dx":-279,"dy":356,"t":27075},{"dx":-281,"dy":373,"t":27110},{"dx":-340,"dy":346,"t":27187},{"dx":-402,"dy":356,"t":27226},{"dx":-389,"dy":358,"t":27260}],[{"dx":311,"dy":-126,"t":28272},{"dx":302,"dy":-108,"t":28355},{"dx":309,"dy":-105,"t":28390},{"dx":304,"dy":-105,"t":28455},{"dx":293,"dy":-112,"t":28491},{"dx":288,"dy":-107,"t":28550},{"dx":280,"dy":-107,"t":28586},{"dx":312,"dy":-136,"t":28641},{"dx":342,"dy":-154,"t":28677},{"dx":318,"dy":-133,"t":28745},{"dx":312,"dy":-121,"t":28779},{"dx":309,"dy":-102,"t":28835},{"dx":335,"dy":-102,"t":28870},{"dx":344,"dy":-95,"t":28927},{"dx":372,"dy":-88,"t":28964},{"dx":394,"dy":-98,"t":29017},{"dx":411,"dy":-110,"t":29052},{"dx":410,"dy":-133,"t":29111},{"dx":398,"dy":-140,"t":29158},{"dx":392,"dy":-131,"t":29218},{"dx":392,"dy":-115,"t":29255},{"dx":394,"dy":-130,"t":29317},{"dx":401,"dy":-131,"t":29352},{"dx":393,"dy":-131,"t":29415},{"dx":377,"dy":-124,"t":29544},{"dx":346,"dy":-127,"t":29604},{"dx":330,"dy":-128,"t":29638},{"dx":334,"dy":-123,"t":29695},{"dx":340,"dy":-122,"t":29731},{"dx":352,"dy":-116,"t":29789},{"dx":355,"dy":-112,"t":29823},{"dx":363,"dy":-95,"t":29880},{"dx":367,"dy":-85,"t":29913},{"dx":350,"dy":-81,"t":29969},{"dx":346,"dy":-79,"t":30008},{"dx":354,"dy":-86,"t":30066},{"dx":364,"dy":-92,"t":30099},{"dx":348,"dy":-116,"t":30164},{"dx":334,"dy":-126,"t":30203},{"dx":357,"dy":-140,"t":30261},{"dx":377,"dy":-163,"t":30279}],[{"dx":-43,"dy":109.5,"t":31266},{"dx":-5,"dy":67.5,"t":31356},{"dx":30,"dy":29.5,"t":31395},{"dx":-25,"dy":39.5,"t":31458},{"dx":-42,"dy":38.5,"t":31494},{"dx":-76,"dy":30.5,"t":31549},{"dx":-102,"dy":14.5,"t":31582},{"dx":-70,"dy":44.5,"t":31642},{"dx":-15,"dy":27.5,"t":31681},{"dx":-37,"dy":65.5,"t":31740},{"dx":-55,"dy":79.5,"t":31779},{"dx":-73,"dy":92.5,"t":31836},{"dx":-96,"dy":87.5,"t":31871},{"dx":-115,"dy":93.5,"t":31927},{"dx":-120,"dy":95.5,"t":31964},{"dx":-151,"dy":89.5,"t":32018},{"dx":-174,"dy":82.5,"t":32052},{"dx":-166,"dy":74.5,"t":32111},{"dx":-169,"dy":69.5,"t":32157},{"dx":-145,"dy":86.5,"t":32213},{"dx":-127,"dy":86.5,"t":32249},{"dx":-92,"dy":83.5,"t":32307},{"dx":-82,"dy":75.5,"t":32346},{"dx":-80,"dy":104.5,"t":32401},{"dx":-78,"dy":115.5,"t":32435},{"dx":-72,"dy":106.5,"t":32494},{"dx":-67,"dy":90.5,"t":32533},{"dx":-88,"dy":93.5,"t":32603},{"dx":-102,"dy":88.5,"t":32647},{"dx":-103,"dy":99.5,"t":32707},{"dx":-109,"dy":98.5,"t":32742},{"dx":-116,"dy":99.5,"t":32797},{"dx":-117,"dy":101.5,"t":32831},{"dx":-102,"dy":111.5,"t":32889},{"dx":-93,"dy":110.5,"t":32929},{"dx":-90,"dy":97.5,"t":32985},{"dx":-80,"dy":92.5,"t":33018},{"dx":-127,"dy":79.5,"t":33079},{"dx":-169,"dy":73.5,"t":33148},{"dx":-210,"dy":73.5,"t":33214},{"dx":-233,"dy":65.5,"t":33249},{"dx":-190,"dy":55.5,"t":33283}],[{"dx":39,"dy":34.5,"t":34280},{"dx":41,"dy":29.5,"t":34363},{"dx":52,"dy":28.5,"t":34408},{"dx":55,"dy":46.5,"t":34462},{"dx":45,"dy":51.5,"t":34497},{"dx":59,"dy":41.5,"t":34558},{"dx":79,"dy":30.5,"t":34597},{"dx":52,"dy":38.5,"t":34652},{"dx":49,"dy":43.5,"t":34696},{"dx":33,"dy":41.5,"t":34762},{"dx":7,"dy":41.5,"t":34798},{"dx":56,"dy":65.5,"t":34859},{"dx":87,"dy":73.5,"t":34898},{"dx":80,"dy":82.5,"t":34958},{"dx":79,"dy":89.5,"t":34994},{"dx":111,"dy":86.5,"t":35052},{"dx":137,"dy":86.5,"t":35087},{"dx":150,"dy":77.5,"t":35161},{"dx":167,"dy":83.5,"t":35199},{"dx":124,"dy":52.5,"t":35287},{"dx":107,"dy":39.5,"t":35334},{"dx":133,"dy":39.5,"t":35395},{"dx":148,"dy":35.5,"t":35444},{"dx":116,"dy":28.5,"t":35508},{"dx":94,"dy":23.5,"t":35542},{"dx":76,"dy":30.5,"t":35598},{"dx":67,"dy":35.5,"t":35634},{"dx":64,"dy":36.5,"t":35690},{"dx":58,"dy":35.5,"t":35724},{"dx":79,"dy":-15.5,"t":35781},{"dx":105,"dy":-67.5,"t":35816},{"dx":97,"dy":-16.5,"t":35871},{"dx":82,"dy":1.5,"t":35905},{"dx":63,"dy":19.5,"t":35958},{"dx":58,"dy":21.5,"t":35994},{"dx":9,"dy":12.5,"t":36055},{"dx":-16,"dy":6.5,"t":36092},{"dx":22,"dy":23.5,"t":36167},{"dx":48,"dy":28.5,"t":36202},{"dx":95,"dy":42.5,"t":36264},{"dx":122,"dy":48.5,"t":36315},{"dx":112,"dy":56.5,"t":36352}],[{"dx":318,"dy":57,"t":37325},{"dx":297,"dy":70,"t":37382},{"dx":283,"dy":79,"t":37417},{"dx":250,"dy":64,"t":37476},{"dx":210,"dy":63,"t":37510},{"dx":229,"dy":68,"t":37567},{"dx":215,"dy":70,"t":37602},{"dx":242,"dy":66,"t":37659},{"dx":254,"dy":74,"t":37697},{"dx":274,"dy":94,"t":37756},{"dx":279,"dy":104,"t":37791},{"dx":215,"dy":99,"t":37848},{"dx":192,"dy":91,"t":37883},{"dx":214,"dy":95,"t":37940},{"dx":189,"dy":95,"t":37975},{"dx":215,"dy":75,"t":38030},{"dx":218,"dy":77,"t":38064},{"dx":244,"dy":91,"t":38140},{"dx":267,"dy":96,"t":38174},{"dx":289,"dy":127,"t":38233},{"dx":301,"dy":131,"t":38270},{"dx":311,"dy":139,"t":38331},{"dx":310,"dy":129,"t":38366},{"dx":292,"dy":147,"t":38429},{"dx":289,"dy":164,"t":38469},{"dx":288,"dy":137,"t":38529},{"dx":277,"dy":97,"t":38567},{"dx":272,"dy":95,"t":38624},{"dx":270,"dy":98,"t":38658},{"dx":252,"dy":104,"t":38718},{"dx":234,"dy":107,"t":38760},{"dx":233,"dy":57,"t":38816},{"dx":235,"dy":74,"t":38857},{"dx":205,"dy":38,"t":38920},{"dx":196,"dy":32,"t":38960},{"dx":246,"dy":65,"t":39021},{"dx":243,"dy":89,"t":39058},{"dx":215,"dy":88,"t":39139},{"dx":207,"dy":99,"t":39182},{"dx":206,"dy":77,"t":39238},{"dx":218,"dy":79,"t":39277}]],"percent_in_roi":[0,0,0,0,0,0,0,0,0,0,66.66666666666666,90.47619047619048,0],"average_offset":[{"x":-357.76190476190476,"y":290.5238095238095,"r":133.21232299880785},{"x":-260.6046511627907,"y":-85.6046511627907,"r":101.66468388896598},{"x":112.19047619047619,"y":271.1904761904762,"r":100.69850279584615},{"x":-330.4186046511628,"y":-102.88372093023256,"r":24.52721140923383},{"x":-102.79069767441861,"y":216.84883720930233,"r":27.889781524184425},{"x":23.209302325581394,"y":192.7325581395349,"r":51.70291011159402},{"x":29.6046511627907,"y":193.8372093023256,"r":41.41925753242793},{"x":309.8048780487805,"y":-37.73170731707317,"r":62.24744332003543},{"x":-328.06976744186045,"y":326.51162790697674,"r":51.261179181484486},{"x":349.0243902439024,"y":-115.48780487804878,"r":37.4324694349069},{"x":-99.42857142857143,"y":79.07142857142857,"r":59.92173227150063},{"x":77.16666666666667,"y":37.88095238095238,"r":56.28309539104186},{"x":248.6341463414634,"y":90.26829268292683,"r":34.955874283678654}],"samples_per_sec":"20.47","clicks":5,"pattern":"spread","trial_type":"webgazer-validate","trial_index":13,"time_elapsed":66203,"internal_node_id":"0.0-10.0-3.0","validation_points":[[75,25],[75,75],[25,25],[85,85],[62.5,37.5],[37.5,37.5],[50,50],[25,75],[85,15],[15,85],[62.5,62.5],[37.5,62.5],[15,15]],"user_agent":"Mozilla/5.0 (Macintosh; Intel Mac OS X 11_2_0) AppleWebKit/537.36 (KHTML, like Gecko) Chrome/88.0.4324.150 Safari/537.36","screen_width_px":1440,"screen_height_px":900},{"rt":1148.8700000336394,"stimulus":"\n      <p>Round complete.</p>\n      <p>You can move a little bit, but please try to return you head to the same general location before continuing.</p>\n    ","response":0,"trial_type":"html-button-response","trial_index":14,"time_elapsed":67354,"internal_node_id":"0.0-10.0-4.0","user_agent":"Mozilla/5.0 (Macintosh; Intel Mac OS X 11_2_0) AppleWebKit/537.36 (KHTML, like Gecko) Chrome/88.0.4324.150 Safari/537.36","screen_width_px":1440,"screen_height_px":900},{"trial_type":"webgazer-init-camera","trial_index":15,"time_elapsed":69283,"internal_node_id":"0.0-10.0-5.0","user_agent":"Mozilla/5.0 (Macintosh; Intel Mac OS X 11_2_0) AppleWebKit/537.36 (KHTML, like Gecko) Chrome/88.0.4324.150 Safari/537.36","screen_width_px":1440,"screen_height_px":900},{"rt":622.8500000433996,"stimulus":"\n      <p>Calibration phase next.</p>\n      <p>Click on the dots.</p>\n    ","response":0,"trial_type":"html-button-response","trial_index":16,"time_elapsed":69906,"internal_node_id":"0.0-10.0-0.1","user_agent":"Mozilla/5.0 (Macintosh; Intel Mac OS X 11_2_0) AppleWebKit/537.36 (KHTML, like Gecko) Chrome/88.0.4324.150 Safari/537.36","screen_width_px":1440,"screen_height_px":900},{"trial_type":"webgazer-calibrate","trial_index":17,"time_elapsed":85737,"internal_node_id":"0.0-10.0-1.1","user_agent":"Mozilla/5.0 (Macintosh; Intel Mac OS X 11_2_0) AppleWebKit/537.36 (KHTML, like Gecko) Chrome/88.0.4324.150 Safari/537.36","screen_width_px":1440,"screen_height_px":900},{"rt":745.1850000070408,"stimulus":"\n      <p>Validation phase next.</p>\n      <p>Look at the dots.</p>\n    ","response":0,"trial_type":"html-button-response","trial_index":18,"time_elapsed":86483,"internal_node_id":"0.0-10.0-2.1","user_agent":"Mozilla/5.0 (Macintosh; Intel Mac OS X 11_2_0) AppleWebKit/537.36 (KHTML, like Gecko) Chrome/88.0.4324.150 Safari/537.36","screen_width_px":1440,"screen_height_px":900},{"raw_gaze":[[{"dx":-39,"dy":223.5,"t":1092},{"dx":-45,"dy":212.5,"t":1128},{"dx":-5,"dy":218.5,"t":1187},{"dx":13,"dy":222.5,"t":1224},{"dx":60,"dy":224.5,"t":1280},{"dx":66,"dy":223.5,"t":1318},{"dx":-20,"dy":212.5,"t":1382},{"dx":-64,"dy":204.5,"t":1425},{"dx":-102,"dy":187.5,"t":1487},{"dx":-95,"dy":196.5,"t":1528},{"dx":-93,"dy":211.5,"t":1622},{"dx":-89,"dy":222.5,"t":1659},{"dx":-90,"dy":207.5,"t":1719},{"dx":-94,"dy":186.5,"t":1757},{"dx":-91,"dy":217.5,"t":1820},{"dx":-85,"dy":252.5,"t":1862},{"dx":-141,"dy":320.5,"t":1920},{"dx":-179,"dy":356.5,"t":1957},{"dx":-192,"dy":363.5,"t":2018},{"dx":-211,"dy":370.5,"t":2062},{"dx":-153,"dy":351.5,"t":2121},{"dx":-131,"dy":331.5,"t":2157},{"dx":-33,"dy":324.5,"t":2217},{"dx":3,"dy":299.5,"t":2258},{"dx":19,"dy":297.5,"t":2317},{"dx":41,"dy":288.5,"t":2358},{"dx":152,"dy":303.5,"t":2416},{"dx":198,"dy":287.5,"t":2454},{"dx":201,"dy":240.5,"t":2509},{"dx":218,"dy":224.5,"t":2560},{"dx":208,"dy":230.5,"t":2618},{"dx":236,"dy":217.5,"t":2655},{"dx":151,"dy":222.5,"t":2710},{"dx":111,"dy":220.5,"t":2744},{"dx":54,"dy":224.5,"t":2804},{"dx":39,"dy":233.5,"t":2841},{"dx":6,"dy":246.5,"t":2904},{"dx":7,"dy":251.5,"t":2940},{"dx":-9,"dy":263.5,"t":2997},{"dx":-4,"dy":265.5,"t":3033},{"dx":24,"dy":270.5,"t":3090},{"dx":1,"dy":261.5,"t":3103}],[{"dx":-113,"dy":252,"t":4117},{"dx":-122,"dy":229,"t":4181},{"dx":-131,"dy":216,"t":4218},{"dx":-93,"dy":199,"t":4275},{"dx":-63,"dy":196,"t":4314},{"dx":-81,"dy":208,"t":4372},{"dx":-91,"dy":212,"t":4414},{"dx":-117,"dy":206,"t":4473},{"dx":-107,"dy":210,"t":4511},{"dx":-122,"dy":200,"t":4576},{"dx":-129,"dy":196,"t":4613},{"dx":-93,"dy":200,"t":4672},{"dx":-83,"dy":204,"t":4709},{"dx":-67,"dy":212,"t":4770},{"dx":-75,"dy":221,"t":4807},{"dx":-34,"dy":222,"t":4865},{"dx":-29,"dy":214,"t":4902},{"dx":-18,"dy":201,"t":4961},{"dx":4,"dy":200,"t":4996},{"dx":13,"dy":185,"t":5057},{"dx":10,"dy":177,"t":5105},{"dx":141,"dy":111,"t":5165},{"dx":253,"dy":82,"t":5199},{"dx":458,"dy":20,"t":5260},{"dx":532,"dy":-21,"t":5297},{"dx":561,"dy":-15,"t":5356},{"dx":532,"dy":21,"t":5405},{"dx":408,"dy":92,"t":5462},{"dx":323,"dy":127,"t":5508},{"dx":181,"dy":197,"t":5574},{"dx":154,"dy":225,"t":5611},{"dx":117,"dy":262,"t":5676},{"dx":86,"dy":280,"t":5715},{"dx":42,"dy":248,"t":5773},{"dx":28,"dy":213,"t":5808},{"dx":14,"dy":233,"t":5870},{"dx":0,"dy":245,"t":5906},{"dx":-8,"dy":254,"t":5971},{"dx":2,"dy":254,"t":6009},{"dx":56,"dy":236,"t":6065},{"dx":94,"dy":222,"t":6105},{"dx":28,"dy":198,"t":6141}],[{"dx":203,"dy":-161,"t":7154},{"dx":160,"dy":-155,"t":7214},{"dx":144,"dy":-152,"t":7254},{"dx":117,"dy":-106,"t":7314},{"dx":72,"dy":-85,"t":7359},{"dx":29,"dy":-45,"t":7417},{"dx":15,"dy":-52,"t":7455},{"dx":17,"dy":-49,"t":7515},{"dx":30,"dy":-42,"t":7579},{"dx":-2,"dy":-56,"t":7641},{"dx":-28,"dy":-79,"t":7681},{"dx":-2,"dy":-24,"t":7740},{"dx":-1,"dy":0,"t":7777},{"dx":-18,"dy":-11,"t":7843},{"dx":-33,"dy":-32,"t":7880},{"dx":-25,"dy":-29,"t":7939},{"dx":-8,"dy":-39,"t":7976},{"dx":13,"dy":-32,"t":8035},{"dx":17,"dy":-18,"t":8070},{"dx":18,"dy":2,"t":8127},{"dx":6,"dy":-4,"t":8163},{"dx":-15,"dy":8,"t":8222},{"dx":-11,"dy":17,"t":8256},{"dx":15,"dy":15,"t":8313},{"dx":30,"dy":11,"t":8348},{"dx":42,"dy":135,"t":8410},{"dx":41,"dy":243,"t":8447},{"dx":-34,"dy":408,"t":8505},{"dx":-51,"dy":455,"t":8565},{"dx":-19,"dy":542,"t":8625},{"dx":1,"dy":554,"t":8662},{"dx":29,"dy":477,"t":8719},{"dx":36,"dy":410,"t":8757},{"dx":51,"dy":279,"t":8815},{"dx":31,"dy":217,"t":8854},{"dx":90,"dy":163,"t":8912},{"dx":110,"dy":154,"t":8947},{"dx":72,"dy":82,"t":9003},{"dx":44,"dy":50,"t":9040},{"dx":44,"dy":13,"t":9096},{"dx":37,"dy":-3,"t":9131},{"dx":25,"dy":6,"t":9167}],[{"dx":-4,"dy":250.5,"t":10189},{"dx":35,"dy":311.5,"t":10226},{"dx":108,"dy":390.5,"t":10283},{"dx":155,"dy":443.5,"t":10325},{"dx":206,"dy":503.5,"t":10382},{"dx":213,"dy":501.5,"t":10423},{"dx":250,"dy":493.5,"t":10491},{"dx":273,"dy":474.5,"t":10529},{"dx":263,"dy":406.5,"t":10610},{"dx":232,"dy":368.5,"t":10651},{"dx":184,"dy":282.5,"t":10711},{"dx":165,"dy":238.5,"t":10748},{"dx":127,"dy":262.5,"t":10806},{"dx":103,"dy":254.5,"t":10855},{"dx":128,"dy":239.5,"t":10914},{"dx":153,"dy":227.5,"t":10947},{"dx":96,"dy":144.5,"t":11007},{"dx":75,"dy":95.5,"t":11044},{"dx":76,"dy":130.5,"t":11102},{"dx":88,"dy":164.5,"t":11137},{"dx":84,"dy":217.5,"t":11198},{"dx":85,"dy":244.5,"t":11234},{"dx":47,"dy":202.5,"t":11291},{"dx":9,"dy":167.5,"t":11325},{"dx":47,"dy":205.5,"t":11381},{"dx":62,"dy":230.5,"t":11418},{"dx":88,"dy":262.5,"t":11475},{"dx":97,"dy":268.5,"t":11513},{"dx":51,"dy":208.5,"t":11577},{"dx":26,"dy":182.5,"t":11618},{"dx":38,"dy":184.5,"t":11676},{"dx":26,"dy":141.5,"t":11713},{"dx":51,"dy":164.5,"t":11775},{"dx":69,"dy":185.5,"t":11811},{"dx":49,"dy":174.5,"t":11868},{"dx":24,"dy":155.5,"t":11903},{"dx":-1,"dy":127.5,"t":11961},{"dx":-5,"dy":113.5,"t":11997},{"dx":-14,"dy":113.5,"t":12053},{"dx":-18,"dy":112.5,"t":12092},{"dx":-22,"dy":87.5,"t":12153},{"dx":-31,"dy":73.5,"t":12191},{"dx":38,"dy":164.5,"t":12230}],[{"dx":65,"dy":249,"t":13255},{"dx":70,"dy":250,"t":13299},{"dx":60,"dy":258,"t":13358},{"dx":39,"dy":242,"t":13397},{"dx":11,"dy":247,"t":13455},{"dx":2,"dy":262,"t":13490},{"dx":-16,"dy":237,"t":13565},{"dx":-25,"dy":205,"t":13599},{"dx":-17,"dy":167,"t":13654},{"dx":-21,"dy":158,"t":13763},{"dx":-7,"dy":146,"t":13820},{"dx":-2,"dy":139,"t":13858},{"dx":23,"dy":158,"t":13917},{"dx":34,"dy":172,"t":13953},{"dx":51,"dy":211,"t":14017},{"dx":40,"dy":214,"t":14057},{"dx":22,"dy":206,"t":14117},{"dx":7,"dy":200,"t":14155},{"dx":25,"dy":213,"t":14213},{"dx":22,"dy":228,"t":14249},{"dx":30,"dy":206,"t":14307},{"dx":46,"dy":202,"t":14346},{"dx":32,"dy":177,"t":14405},{"dx":8,"dy":158,"t":14441},{"dx":25,"dy":188,"t":14497},{"dx":33,"dy":226,"t":14534},{"dx":20,"dy":294,"t":14604},{"dx":36,"dy":335,"t":14639},{"dx":88,"dy":400,"t":14694},{"dx":116,"dy":415,"t":14730},{"dx":141,"dy":414,"t":14788},{"dx":144,"dy":406,"t":14824},{"dx":141,"dy":377,"t":14886},{"dx":135,"dy":359,"t":14925},{"dx":121,"dy":337,"t":14984},{"dx":114,"dy":332,"t":15020},{"dx":101,"dy":315,"t":15077},{"dx":91,"dy":301,"t":15113},{"dx":71,"dy":265,"t":15174},{"dx":55,"dy":249,"t":15215},{"dx":16,"dy":242,"t":15250}],[{"dx":-73,"dy":-5,"t":16267},{"dx":-72,"dy":-2,"t":16303},{"dx":-68,"dy":43,"t":16358},{"dx":-75,"dy":52,"t":16392},{"dx":-95,"dy":91,"t":16450},{"dx":-103,"dy":114,"t":16486},{"dx":-52,"dy":147,"t":16561},{"dx":-18,"dy":160,"t":16595},{"dx":10,"dy":149,"t":16655},{"dx":-10,"dy":152,"t":16695},{"dx":-25,"dy":162,"t":16753},{"dx":-23,"dy":168,"t":16789},{"dx":15,"dy":148,"t":16849},{"dx":32,"dy":141,"t":16883},{"dx":20,"dy":97,"t":16946},{"dx":-9,"dy":74,"t":16979},{"dx":17,"dy":89,"t":17038},{"dx":38,"dy":102,"t":17075},{"dx":16,"dy":95,"t":17133},{"dx":-22,"dy":84,"t":17171},{"dx":-14,"dy":96,"t":17230},{"dx":-59,"dy":72,"t":17274},{"dx":-23,"dy":131,"t":17330},{"dx":-16,"dy":169,"t":17367},{"dx":24,"dy":183,"t":17424},{"dx":42,"dy":184,"t":17460},{"dx":48,"dy":187,"t":17516},{"dx":49,"dy":179,"t":17569},{"dx":68,"dy":183,"t":17639},{"dx":84,"dy":192,"t":17675},{"dx":7,"dy":147,"t":17733},{"dx":8,"dy":125,"t":17771},{"dx":2,"dy":84,"t":17828},{"dx":5,"dy":67,"t":17865},{"dx":-11,"dy":79,"t":17920},{"dx":-51,"dy":123,"t":17956},{"dx":-84,"dy":120,"t":18013},{"dx":-105,"dy":103,"t":18046},{"dx":-62,"dy":88,"t":18103},{"dx":-42,"dy":71,"t":18137},{"dx":-1,"dy":91,"t":18195},{"dx":19,"dy":121,"t":18236},{"dx":53,"dy":125,"t":18270}],[{"dx":-216,"dy":-84,"t":19285},{"dx":-224,"dy":-68,"t":19323},{"dx":-160,"dy":-91,"t":19384},{"dx":-160,"dy":-83,"t":19421},{"dx":-162,"dy":-64,"t":19478},{"dx":-165,"dy":-57,"t":19513},{"dx":-148,"dy":-49,"t":19574},{"dx":-154,"dy":9,"t":19610},{"dx":-140,"dy":-20,"t":19668},{"dx":-122,"dy":-21,"t":19708},{"dx":-143,"dy":-33,"t":19765},{"dx":-184,"dy":-39,"t":19800},{"dx":-166,"dy":-1,"t":19858},{"dx":-135,"dy":27,"t":19893},{"dx":-126,"dy":-19,"t":19953},{"dx":-128,"dy":-38,"t":19987},{"dx":-165,"dy":-35,"t":20045},{"dx":-162,"dy":-38,"t":20078},{"dx":-184,"dy":-21,"t":20135},{"dx":-176,"dy":-23,"t":20174},{"dx":-124,"dy":-57,"t":20235},{"dx":-100,"dy":-67,"t":20271},{"dx":-139,"dy":-46,"t":20332},{"dx":-176,"dy":-23,"t":20367},{"dx":-198,"dy":32,"t":20422},{"dx":-184,"dy":66,"t":20461},{"dx":-174,"dy":16,"t":20517},{"dx":-175,"dy":-6,"t":20574},{"dx":-150,"dy":-7,"t":20631},{"dx":-137,"dy":1,"t":20668},{"dx":-159,"dy":1,"t":20725},{"dx":-155,"dy":-15,"t":20762},{"dx":-143,"dy":-27,"t":20817},{"dx":-130,"dy":-24,"t":20852},{"dx":-118,"dy":-14,"t":20907},{"dx":-118,"dy":-6,"t":20941},{"dx":-106,"dy":-47,"t":21000},{"dx":-109,"dy":-77,"t":21043},{"dx":-166,"dy":-69,"t":21165},{"dx":-213,"dy":-39,"t":21198},{"dx":-243,"dy":-33,"t":21257},{"dx":-235,"dy":-51,"t":21274}],[{"dx":111,"dy":34,"t":22296},{"dx":92,"dy":21,"t":22331},{"dx":90,"dy":15,"t":22392},{"dx":90,"dy":10,"t":22427},{"dx":34,"dy":-3,"t":22491},{"dx":2,"dy":-9,"t":22528},{"dx":10,"dy":-11,"t":22595},{"dx":4,"dy":-11,"t":22629},{"dx":-20,"dy":-10,"t":22688},{"dx":-30,"dy":-15,"t":22722},{"dx":-19,"dy":-10,"t":22776},{"dx":-13,"dy":-14,"t":22811},{"dx":-41,"dy":-27,"t":22872},{"dx":-54,"dy":-32,"t":22908},{"dx":-80,"dy":-52,"t":22966},{"dx":-87,"dy":-61,"t":23002},{"dx":-85,"dy":-36,"t":23059},{"dx":-69,"dy":-36,"t":23095},{"dx":-6,"dy":-17,"t":23153},{"dx":25,"dy":-10,"t":23188},{"dx":53,"dy":-10,"t":23244},{"dx":65,"dy":-6,"t":23279},{"dx":67,"dy":-5,"t":23337},{"dx":64,"dy":-6,"t":23374},{"dx":56,"dy":-4,"t":23429},{"dx":45,"dy":0,"t":23464},{"dx":33,"dy":2,"t":23526},{"dx":16,"dy":0,"t":23574},{"dx":41,"dy":-1,"t":23631},{"dx":54,"dy":1,"t":23670},{"dx":62,"dy":3,"t":23727},{"dx":59,"dy":3,"t":23763},{"dx":62,"dy":-9,"t":23823},{"dx":66,"dy":-13,"t":23857},{"dx":78,"dy":-10,"t":23912},{"dx":83,"dy":-9,"t":23951},{"dx":82,"dy":-15,"t":24008},{"dx":77,"dy":-19,"t":24043},{"dx":62,"dy":-27,"t":24110},{"dx":52,"dy":-32,"t":24145},{"dx":31,"dy":-37,"t":24214},{"dx":23,"dy":-37,"t":24254},{"dx":8,"dy":-25,"t":24286}],[{"dx":42,"dy":199,"t":25295},{"dx":70,"dy":195,"t":25382},{"dx":59,"dy":189,"t":25417},{"dx":78,"dy":185,"t":25474},{"dx":95,"dy":182,"t":25515},{"dx":106,"dy":201,"t":25580},{"dx":115,"dy":211,"t":25625},{"dx":115,"dy":227,"t":25689},{"dx":108,"dy":233,"t":25723},{"dx":135,"dy":218,"t":25779},{"dx":140,"dy":215,"t":25818},{"dx":173,"dy":211,"t":25876},{"dx":173,"dy":204,"t":25915},{"dx":184,"dy":196,"t":25975},{"dx":172,"dy":188,"t":26012},{"dx":151,"dy":167,"t":26067},{"dx":142,"dy":154,"t":26103},{"dx":132,"dy":168,"t":26161},{"dx":136,"dy":180,"t":26198},{"dx":105,"dy":172,"t":26255},{"dx":92,"dy":170,"t":26290},{"dx":71,"dy":122,"t":26347},{"dx":60,"dy":92,"t":26382},{"dx":71,"dy":137,"t":26442},{"dx":84,"dy":159,"t":26479},{"dx":134,"dy":174,"t":26547},{"dx":174,"dy":180,"t":26601},{"dx":212,"dy":176,"t":26659},{"dx":214,"dy":167,"t":26702},{"dx":196,"dy":165,"t":26759},{"dx":180,"dy":160,"t":26796},{"dx":148,"dy":166,"t":26855},{"dx":109,"dy":162,"t":26890},{"dx":99,"dy":167,"t":26947},{"dx":86,"dy":156,"t":26991},{"dx":96,"dy":173,"t":27049},{"dx":113,"dy":178,"t":27084},{"dx":76,"dy":186,"t":27142},{"dx":66,"dy":192,"t":27179},{"dx":54,"dy":203,"t":27239},{"dx":52,"dy":207,"t":27278},{"dx":53,"dy":191,"t":27311}],[{"dx":-67,"dy":-216,"t":28305},{"dx":-61,"dy":-223,"t":28395},{"dx":-53,"dy":-217,"t":28429},{"dx":-100,"dy":-187,"t":28492},{"dx":-118,"dy":-176,"t":28530},{"dx":-128,"dy":-146,"t":28604},{"dx":-131,"dy":-116,"t":28641},{"dx":-141,"dy":-78,"t":28700},{"dx":-145,"dy":-54,"t":28738},{"dx":-134,"dy":-45,"t":28797},{"dx":-134,"dy":-50,"t":28834},{"dx":-121,"dy":-77,"t":28896},{"dx":-110,"dy":-95,"t":28934},{"dx":-82,"dy":-115,"t":28995},{"dx":-67,"dy":-119,"t":29031},{"dx":-49,"dy":-108,"t":29090},{"dx":-44,"dy":-97,"t":29125},{"dx":-39,"dy":-92,"t":29181},{"dx":-38,"dy":-96,"t":29218},{"dx":-52,"dy":-100,"t":29278},{"dx":-64,"dy":-100,"t":29315},{"dx":-79,"dy":-94,"t":29372},{"dx":-80,"dy":-86,"t":29410},{"dx":-83,"dy":-71,"t":29471},{"dx":-84,"dy":-64,"t":29519},{"dx":-82,"dy":-67,"t":29585},{"dx":-50,"dy":-53,"t":29621},{"dx":-71,"dy":-60,"t":29678},{"dx":-76,"dy":-68,"t":29715},{"dx":-17,"dy":-68,"t":29776},{"dx":23,"dy":-61,"t":29815},{"dx":-1,"dy":-87,"t":29876},{"dx":-7,"dy":-81,"t":29914},{"dx":-10,"dy":-63,"t":29971},{"dx":-12,"dy":-56,"t":30015},{"dx":-27,"dy":-77,"t":30078},{"dx":-29,"dy":-92,"t":30118},{"dx":-49,"dy":-98,"t":30177},{"dx":-64,"dy":-96,"t":30215},{"dx":-96,"dy":-111,"t":30275},{"dx":-100,"dy":-117,"t":30322},{"dx":-101,"dy":-123,"t":30357}],[{"dx":-66,"dy":165.5,"t":31373},{"dx":-38,"dy":164.5,"t":31412},{"dx":-51,"dy":170.5,"t":31469},{"dx":-16,"dy":163.5,"t":31505},{"dx":-77,"dy":104.5,"t":31577},{"dx":-92,"dy":70.5,"t":31615},{"dx":-75,"dy":74.5,"t":31674},{"dx":-49,"dy":86.5,"t":31709},{"dx":13,"dy":76.5,"t":31769},{"dx":67,"dy":78.5,"t":31804},{"dx":99,"dy":85.5,"t":31864},{"dx":86,"dy":89.5,"t":31903},{"dx":16,"dy":77.5,"t":31960},{"dx":-17,"dy":69.5,"t":31995},{"dx":-7,"dy":68.5,"t":32050},{"dx":-5,"dy":69.5,"t":32087},{"dx":-27,"dy":129.5,"t":32145},{"dx":-13,"dy":190.5,"t":32180},{"dx":14,"dy":307.5,"t":32236},{"dx":47,"dy":378.5,"t":32271},{"dx":77,"dy":466.5,"t":32330},{"dx":97,"dy":490.5,"t":32369},{"dx":123,"dy":528.5,"t":32425},{"dx":138,"dy":525.5,"t":32460},{"dx":109,"dy":516.5,"t":32517},{"dx":91,"dy":499.5,"t":32575},{"dx":82,"dy":416.5,"t":32632},{"dx":58,"dy":366.5,"t":32670},{"dx":40,"dy":280.5,"t":32728},{"dx":24,"dy":243.5,"t":32763},{"dx":24,"dy":221.5,"t":32820},{"dx":16,"dy":221.5,"t":32855},{"dx":-41,"dy":138.5,"t":32913},{"dx":-81,"dy":92.5,"t":32948},{"dx":-14,"dy":94.5,"t":33005},{"dx":37,"dy":90.5,"t":33044},{"dx":51,"dy":89.5,"t":33103},{"dx":23,"dy":92.5,"t":33140},{"dx":67,"dy":92.5,"t":33198},{"dx":59,"dy":97.5,"t":33233},{"dx":-11,"dy":104.5,"t":33289},{"dx":-56,"dy":100.5,"t":33324},{"dx":-129,"dy":92.5,"t":33357}],[{"dx":167,"dy":257.5,"t":34367},{"dx":174,"dy":228.5,"t":34456},{"dx":175,"dy":213.5,"t":34490},{"dx":147,"dy":183.5,"t":34564},{"dx":123,"dy":169.5,"t":34600},{"dx":108,"dy":143.5,"t":34655},{"dx":103,"dy":130.5,"t":34696},{"dx":142,"dy":181.5,"t":34762},{"dx":147,"dy":202.5,"t":34797},{"dx":188,"dy":251.5,"t":34854},{"dx":199,"dy":254.5,"t":34893},{"dx":235,"dy":270.5,"t":34951},{"dx":254,"dy":264.5,"t":34988},{"dx":270,"dy":253.5,"t":35046},{"dx":270,"dy":250.5,"t":35083},{"dx":231,"dy":213.5,"t":35140},{"dx":201,"dy":196.5,"t":35174},{"dx":165,"dy":191.5,"t":35233},{"dx":157,"dy":199.5,"t":35271},{"dx":164,"dy":224.5,"t":35326},{"dx":178,"dy":217.5,"t":35361},{"dx":226,"dy":234.5,"t":35418},{"dx":226,"dy":257.5,"t":35457},{"dx":198,"dy":302.5,"t":35514},{"dx":169,"dy":329.5,"t":35561},{"dx":162,"dy":367.5,"t":35623},{"dx":144,"dy":375.5,"t":35660},{"dx":59,"dy":381.5,"t":35716},{"dx":94,"dy":386.5,"t":35757},{"dx":100,"dy":373.5,"t":35815},{"dx":109,"dy":364.5,"t":35857},{"dx":124,"dy":358.5,"t":35923},{"dx":131,"dy":353.5,"t":35962},{"dx":81,"dy":331.5,"t":36019},{"dx":87,"dy":343.5,"t":36061},{"dx":129,"dy":320.5,"t":36120},{"dx":154,"dy":306.5,"t":36156},{"dx":193,"dy":292.5,"t":36215},{"dx":208,"dy":290.5,"t":36250},{"dx":161,"dy":286.5,"t":36306},{"dx":142,"dy":278.5,"t":36343},{"dx":153,"dy":287.5,"t":36376}],[{"dx":180,"dy":122,"t":37412},{"dx":219,"dy":111,"t":37455},{"dx":234,"dy":91,"t":37514},{"dx":230,"dy":81,"t":37565},{"dx":210,"dy":66,"t":37623},{"dx":197,"dy":60,"t":37666},{"dx":90,"dy":114,"t":37725},{"dx":65,"dy":133,"t":37761},{"dx":107,"dy":116,"t":37823},{"dx":123,"dy":98,"t":37861},{"dx":147,"dy":110,"t":37921},{"dx":170,"dy":110,"t":37957},{"dx":165,"dy":112,"t":38014},{"dx":169,"dy":113,"t":38048},{"dx":193,"dy":123,"t":38106},{"dx":190,"dy":114,"t":38141},{"dx":170,"dy":103,"t":38201},{"dx":159,"dy":98,"t":38235},{"dx":145,"dy":93,"t":38292},{"dx":141,"dy":92,"t":38329},{"dx":148,"dy":98,"t":38387},{"dx":142,"dy":104,"t":38424},{"dx":140,"dy":100,"t":38481},{"dx":121,"dy":97,"t":38517},{"dx":118,"dy":102,"t":38594},{"dx":111,"dy":112,"t":38631},{"dx":113,"dy":133,"t":38688},{"dx":121,"dy":144,"t":38725},{"dx":129,"dy":154,"t":38787},{"dx":131,"dy":154,"t":38826},{"dx":139,"dy":150,"t":38885},{"dx":145,"dy":147,"t":38925},{"dx":158,"dy":145,"t":38986},{"dx":164,"dy":146,"t":39028},{"dx":166,"dy":146,"t":39085},{"dx":169,"dy":148,"t":39124},{"dx":184,"dy":150,"t":39183},{"dx":194,"dy":150,"t":39219},{"dx":197,"dy":148,"t":39278},{"dx":190,"dy":147,"t":39317}]],"percent_in_roi":[0,0,64.28571428571429,18.6046511627907,4.878048780487805,69.76744186046511,38.095238095238095,100,4.761904761904762,73.80952380952381,53.48837209302325,0,5],"average_offset":[{"x":-3.738095238095238,"y":254.57142857142858,"r":126.83544460892931},{"x":58.595238095238095,"y":186.76190476190476,"r":186.8851367014949},{"x":30.761904761904763,"y":73.02380952380952,"r":175.28647959954702},{"x":86.65116279069767,"y":236.56976744186048,"r":91.71523698071886},{"x":47.48780487804878,"y":252.6829268292683,"r":66.44360859511612},{"x":-12.930232558139535,"y":115.83720930232558,"r":52.02466964842855},{"x":-158.85714285714286,"y":-29.523809523809526,"r":53.3903847857527},{"x":27.74418604651163,"y":-12.325581395348838,"r":37.52777950693954},{"x":115.97619047619048,"y":180.42857142857142,"r":65.40398126907135},{"x":-70.78571428571429,"y":-100,"r":61.27289118803516},{"x":13.790697674418604,"y":197.2906976744186,"r":120.7932856059687},{"x":163.04761904761904,"y":269.54761904761904,"r":111.08695684066538},{"x":157.1,"y":118.375,"r":56.30002592428903}],"samples_per_sec":"20.51","clicks":15,"pattern":"spread","trial_type":"webgazer-validate","trial_index":19,"time_elapsed":126820,"internal_node_id":"0.0-10.0-3.1","validation_points":[[62.5,62.5],[15,85],[75,25],[37.5,37.5],[50,50],[25,25],[15,15],[85,85],[25,75],[85,15],[62.5,37.5],[37.5,62.5],[75,75]],"user_agent":"Mozilla/5.0 (Macintosh; Intel Mac OS X 11_2_0) AppleWebKit/537.36 (KHTML, like Gecko) Chrome/88.0.4324.150 Safari/537.36","screen_width_px":1440,"screen_height_px":900},{"rt":1255.6799999438226,"stimulus":"\n      <p>Round complete.</p>\n      <p>You can move a little bit, but please try to return you head to the same general location before continuing.</p>\n    ","response":0,"trial_type":"html-button-response","trial_index":20,"time_elapsed":128077,"internal_node_id":"0.0-10.0-4.1","user_agent":"Mozilla/5.0 (Macintosh; Intel Mac OS X 11_2_0) AppleWebKit/537.36 (KHTML, like Gecko) Chrome/88.0.4324.150 Safari/537.36","screen_width_px":1440,"screen_height_px":900},{"trial_type":"webgazer-init-camera","trial_index":21,"time_elapsed":129873,"internal_node_id":"0.0-10.0-5.1","user_agent":"Mozilla/5.0 (Macintosh; Intel Mac OS X 11_2_0) AppleWebKit/537.36 (KHTML, like Gecko) Chrome/88.0.4324.150 Safari/537.36","screen_width_px":1440,"screen_height_px":900},{"rt":676.9999999087304,"stimulus":"\n      <p>Calibration phase next.</p>\n      <p>Click on the dots.</p>\n    ","response":0,"trial_type":"html-button-response","trial_index":22,"time_elapsed":130551,"internal_node_id":"0.0-10.0-0.2","user_agent":"Mozilla/5.0 (Macintosh; Intel Mac OS X 11_2_0) AppleWebKit/537.36 (KHTML, like Gecko) Chrome/88.0.4324.150 Safari/537.36","screen_width_px":1440,"screen_height_px":900},{"trial_type":"webgazer-calibrate","trial_index":23,"time_elapsed":146280,"internal_node_id":"0.0-10.0-1.2","user_agent":"Mozilla/5.0 (Macintosh; Intel Mac OS X 11_2_0) AppleWebKit/537.36 (KHTML, like Gecko) Chrome/88.0.4324.150 Safari/537.36","screen_width_px":1440,"screen_height_px":900},{"rt":728.4099999815226,"stimulus":"\n      <p>Validation phase next.</p>\n      <p>Look at the dots.</p>\n    ","response":0,"trial_type":"html-button-response","trial_index":24,"time_elapsed":147009,"internal_node_id":"0.0-10.0-2.2","user_agent":"Mozilla/5.0 (Macintosh; Intel Mac OS X 11_2_0) AppleWebKit/537.36 (KHTML, like Gecko) Chrome/88.0.4324.150 Safari/537.36","screen_width_px":1440,"screen_height_px":900},{"raw_gaze":[[{"dx":-23,"dy":-43,"t":1087},{"dx":-15,"dy":-76,"t":1177},{"dx":-13,"dy":-97,"t":1215},{"dx":4,"dy":-89,"t":1277},{"dx":10,"dy":-85,"t":1315},{"dx":29,"dy":-69,"t":1375},{"dx":38,"dy":-63,"t":1412},{"dx":69,"dy":-76,"t":1472},{"dx":82,"dy":-72,"t":1512},{"dx":60,"dy":-92,"t":1576},{"dx":50,"dy":-102,"t":1613},{"dx":32,"dy":-103,"t":1678},{"dx":24,"dy":-97,"t":1719},{"dx":14,"dy":-86,"t":1779},{"dx":11,"dy":-81,"t":1823},{"dx":19,"dy":-70,"t":1894},{"dx":8,"dy":-64,"t":1933},{"dx":6,"dy":-70,"t":1993},{"dx":0,"dy":-78,"t":2049},{"dx":-17,"dy":-87,"t":2112},{"dx":-24,"dy":-91,"t":2150},{"dx":-39,"dy":-97,"t":2218},{"dx":-57,"dy":-96,"t":2266},{"dx":14,"dy":-105,"t":2322},{"dx":57,"dy":-116,"t":2364},{"dx":242,"dy":-146,"t":2430},{"dx":359,"dy":-176,"t":2470},{"dx":407,"dy":-158,"t":2530},{"dx":354,"dy":-146,"t":2569},{"dx":266,"dy":-97,"t":2625},{"dx":210,"dy":-73,"t":2659},{"dx":126,"dy":-46,"t":2716},{"dx":65,"dy":-43,"t":2752},{"dx":-35,"dy":-36,"t":2808},{"dx":-60,"dy":-33,"t":2843},{"dx":-97,"dy":-27,"t":2902},{"dx":-110,"dy":-24,"t":2937},{"dx":-123,"dy":-30,"t":2994},{"dx":-122,"dy":-39,"t":3049},{"dx":-109,"dy":-42,"t":3107},{"dx":-91,"dy":-47,"t":3127}],[{"dx":45,"dy":103,"t":4132},{"dx":40,"dy":114,"t":4172},{"dx":-4,"dy":112,"t":4238},{"dx":-19,"dy":109,"t":4281},{"dx":-60,"dy":96,"t":4348},{"dx":-79,"dy":96,"t":4393},{"dx":-133,"dy":91,"t":4451},{"dx":-161,"dy":95,"t":4489},{"dx":-211,"dy":163,"t":4549},{"dx":-257,"dy":218,"t":4583},{"dx":-343,"dy":316,"t":4648},{"dx":-365,"dy":351,"t":4683},{"dx":-339,"dy":331,"t":4745},{"dx":-313,"dy":294,"t":4781},{"dx":-257,"dy":220,"t":4838},{"dx":-230,"dy":182,"t":4873},{"dx":-211,"dy":119,"t":4928},{"dx":-190,"dy":102,"t":4963},{"dx":-197,"dy":114,"t":5042},{"dx":-208,"dy":154,"t":5084},{"dx":-277,"dy":190,"t":5140},{"dx":-320,"dy":213,"t":5174},{"dx":-380,"dy":249,"t":5229},{"dx":-409,"dy":282,"t":5262},{"dx":-489,"dy":321,"t":5315},{"dx":-490,"dy":327,"t":5362},{"dx":-470,"dy":330,"t":5418},{"dx":-460,"dy":336,"t":5453},{"dx":-464,"dy":328,"t":5507},{"dx":-480,"dy":334,"t":5543},{"dx":-408,"dy":349,"t":5602},{"dx":-369,"dy":367,"t":5636},{"dx":-285,"dy":367,"t":5694},{"dx":-260,"dy":394,"t":5741},{"dx":-258,"dy":412,"t":5894},{"dx":-272,"dy":436,"t":5937},{"dx":-296,"dy":430,"t":5998},{"dx":-311,"dy":404,"t":6049},{"dx":-256,"dy":319,"t":6116},{"dx":-223,"dy":252,"t":6161},{"dx":-226,"dy":163,"t":6200}],[{"dx":-18,"dy":170,"t":7187},{"dx":97,"dy":138,"t":7269},{"dx":103,"dy":143,"t":7304},{"dx":74,"dy":158,"t":7369},{"dx":28,"dy":179,"t":7402},{"dx":-56,"dy":183,"t":7459},{"dx":-116,"dy":183,"t":7495},{"dx":-55,"dy":151,"t":7553},{"dx":7,"dy":116,"t":7593},{"dx":14,"dy":129,"t":7653},{"dx":-32,"dy":158,"t":7686},{"dx":-117,"dy":209,"t":7744},{"dx":-167,"dy":217,"t":7780},{"dx":-207,"dy":228,"t":7838},{"dx":-214,"dy":228,"t":7872},{"dx":-247,"dy":240,"t":7935},{"dx":-262,"dy":246,"t":7976},{"dx":-258,"dy":217,"t":8052},{"dx":-247,"dy":202,"t":8088},{"dx":-113,"dy":188,"t":8148},{"dx":-38,"dy":173,"t":8182},{"dx":-10,"dy":188,"t":8263},{"dx":-12,"dy":205,"t":8304},{"dx":-58,"dy":214,"t":8360},{"dx":-100,"dy":210,"t":8395},{"dx":-139,"dy":198,"t":8451},{"dx":-155,"dy":201,"t":8486},{"dx":-155,"dy":213,"t":8541},{"dx":-150,"dy":225,"t":8578},{"dx":-143,"dy":225,"t":8632},{"dx":-154,"dy":210,"t":8667},{"dx":-111,"dy":186,"t":8721},{"dx":-67,"dy":155,"t":8755},{"dx":-26,"dy":163,"t":8810},{"dx":-27,"dy":175,"t":8843},{"dx":-81,"dy":191,"t":8899},{"dx":-121,"dy":200,"t":8935},{"dx":-165,"dy":211,"t":8989},{"dx":-168,"dy":226,"t":9047},{"dx":-148,"dy":228,"t":9115},{"dx":-136,"dy":233,"t":9155},{"dx":-161,"dy":245,"t":9210},{"dx":-156,"dy":241,"t":9228}],[{"dx":-147,"dy":4,"t":10221},{"dx":-132,"dy":2,"t":10321},{"dx":-136,"dy":-2,"t":10386},{"dx":-132,"dy":-14,"t":10445},{"dx":-124,"dy":-6,"t":10480},{"dx":-122,"dy":-38,"t":10540},{"dx":-149,"dy":-50,"t":10582},{"dx":-193,"dy":-53,"t":10637},{"dx":-223,"dy":-49,"t":10673},{"dx":-265,"dy":-33,"t":10731},{"dx":-261,"dy":-27,"t":10771},{"dx":-296,"dy":-20,"t":10828},{"dx":-301,"dy":-12,"t":10864},{"dx":-315,"dy":-7,"t":10925},{"dx":-326,"dy":-11,"t":10961},{"dx":-353,"dy":-17,"t":11044},{"dx":-359,"dy":-21,"t":11078},{"dx":-368,"dy":-23,"t":11134},{"dx":-367,"dy":-23,"t":11173},{"dx":-325,"dy":-36,"t":11232},{"dx":-301,"dy":-32,"t":11266},{"dx":-248,"dy":-32,"t":11325},{"dx":-227,"dy":-38,"t":11362},{"dx":-209,"dy":-59,"t":11421},{"dx":-209,"dy":-72,"t":11455},{"dx":-210,"dy":-93,"t":11516},{"dx":-211,"dy":-101,"t":11555},{"dx":-168,"dy":-67,"t":11622},{"dx":-152,"dy":-61,"t":11659},{"dx":-153,"dy":-38,"t":11717},{"dx":-158,"dy":-32,"t":11757},{"dx":-213,"dy":-13,"t":11816},{"dx":-241,"dy":-16,"t":11855},{"dx":-265,"dy":-12,"t":11912},{"dx":-274,"dy":-11,"t":11946},{"dx":-280,"dy":-17,"t":12036},{"dx":-259,"dy":-29,"t":12079},{"dx":-283,"dy":-19,"t":12135},{"dx":-314,"dy":-14,"t":12172},{"dx":-278,"dy":-17,"t":12233},{"dx":-238,"dy":-17,"t":12248}],[{"dx":58,"dy":1,"t":13253},{"dx":103,"dy":-20,"t":13349},{"dx":97,"dy":-12,"t":13394},{"dx":90,"dy":-6,"t":13542},{"dx":86,"dy":-6,"t":13577},{"dx":54,"dy":2,"t":13635},{"dx":32,"dy":7,"t":13676},{"dx":-32,"dy":7,"t":13735},{"dx":-54,"dy":4,"t":13775},{"dx":-63,"dy":19,"t":13835},{"dx":-95,"dy":18,"t":13872},{"dx":-86,"dy":23,"t":13930},{"dx":-72,"dy":35,"t":13967},{"dx":-124,"dy":36,"t":14039},{"dx":-149,"dy":36,"t":14077},{"dx":-117,"dy":34,"t":14135},{"dx":-120,"dy":37,"t":14173},{"dx":-74,"dy":40,"t":14233},{"dx":-48,"dy":41,"t":14267},{"dx":-81,"dy":37,"t":14329},{"dx":-89,"dy":22,"t":14363},{"dx":-86,"dy":10,"t":14422},{"dx":-77,"dy":12,"t":14459},{"dx":-54,"dy":19,"t":14517},{"dx":-63,"dy":37,"t":14554},{"dx":-65,"dy":52,"t":14611},{"dx":-59,"dy":51,"t":14648},{"dx":-60,"dy":51,"t":14705},{"dx":-65,"dy":52,"t":14741},{"dx":-82,"dy":48,"t":14799},{"dx":-95,"dy":45,"t":14838},{"dx":-106,"dy":37,"t":14895},{"dx":-92,"dy":38,"t":14933},{"dx":-84,"dy":35,"t":14993},{"dx":-81,"dy":32,"t":15048},{"dx":-115,"dy":32,"t":15108},{"dx":-131,"dy":30,"t":15144},{"dx":-130,"dy":37,"t":15201},{"dx":-118,"dy":42,"t":15248},{"dx":-85,"dy":47,"t":15282}],[{"dx":-11,"dy":227,"t":16302},{"dx":-7,"dy":225,"t":16350},{"dx":-11,"dy":225,"t":16408},{"dx":-18,"dy":226,"t":16444},{"dx":10,"dy":229,"t":16502},{"dx":-4,"dy":243,"t":16540},{"dx":6,"dy":249,"t":16597},{"dx":0,"dy":251,"t":16633},{"dx":25,"dy":246,"t":16690},{"dx":51,"dy":240,"t":16728},{"dx":22,"dy":233,"t":16785},{"dx":2,"dy":229,"t":16819},{"dx":-20,"dy":232,"t":16878},{"dx":-28,"dy":229,"t":16912},{"dx":-43,"dy":232,"t":16975},{"dx":-38,"dy":230,"t":17011},{"dx":54,"dy":261,"t":17083},{"dx":133,"dy":277,"t":17120},{"dx":183,"dy":334,"t":17177},{"dx":194,"dy":360,"t":17213},{"dx":128,"dy":422,"t":17273},{"dx":96,"dy":452,"t":17310},{"dx":47,"dy":463,"t":17370},{"dx":40,"dy":442,"t":17407},{"dx":21,"dy":426,"t":17463},{"dx":-11,"dy":411,"t":17499},{"dx":-26,"dy":364,"t":17558},{"dx":-28,"dy":332,"t":17593},{"dx":-51,"dy":310,"t":17651},{"dx":-67,"dy":307,"t":17686},{"dx":-82,"dy":302,"t":17743},{"dx":-90,"dy":293,"t":17778},{"dx":-46,"dy":260,"t":17840},{"dx":-44,"dy":245,"t":17879},{"dx":-33,"dy":243,"t":17938},{"dx":-26,"dy":252,"t":17976},{"dx":9,"dy":264,"t":18049},{"dx":16,"dy":268,"t":18087},{"dx":32,"dy":264,"t":18146},{"dx":34,"dy":253,"t":18179},{"dx":-2,"dy":230,"t":18235},{"dx":-29,"dy":211,"t":18281},{"dx":-32,"dy":213,"t":18315}],[{"dx":-20,"dy":283.5,"t":19323},{"dx":-42,"dy":285.5,"t":19358},{"dx":-63,"dy":279.5,"t":19413},{"dx":-64,"dy":273.5,"t":19450},{"dx":-75,"dy":264.5,"t":19507},{"dx":-91,"dy":257.5,"t":19545},{"dx":-84,"dy":267.5,"t":19602},{"dx":-71,"dy":274.5,"t":19640},{"dx":-119,"dy":272.5,"t":19695},{"dx":-147,"dy":271.5,"t":19733},{"dx":-196,"dy":270.5,"t":19794},{"dx":-189,"dy":265.5,"t":19833},{"dx":-218,"dy":297.5,"t":19890},{"dx":-221,"dy":308.5,"t":19925},{"dx":-200,"dy":326.5,"t":19985},{"dx":-203,"dy":333.5,"t":20053},{"dx":-208,"dy":322.5,"t":20113},{"dx":-207,"dy":320.5,"t":20152},{"dx":-185,"dy":310.5,"t":20211},{"dx":-168,"dy":302.5,"t":20249},{"dx":-190,"dy":312.5,"t":20309},{"dx":-200,"dy":311.5,"t":20347},{"dx":-172,"dy":294.5,"t":20404},{"dx":-158,"dy":287.5,"t":20439},{"dx":-134,"dy":285.5,"t":20497},{"dx":-124,"dy":289.5,"t":20534},{"dx":-112,"dy":291.5,"t":20595},{"dx":-110,"dy":290.5,"t":20633},{"dx":-164,"dy":313.5,"t":20693},{"dx":-173,"dy":318.5,"t":20729},{"dx":-130,"dy":292.5,"t":20785},{"dx":-107,"dy":274.5,"t":20818},{"dx":-87,"dy":254.5,"t":20874},{"dx":-87,"dy":249.5,"t":20909},{"dx":-103,"dy":256.5,"t":20969},{"dx":-86,"dy":254.5,"t":21004},{"dx":-87,"dy":257.5,"t":21082},{"dx":-73,"dy":251.5,"t":21119},{"dx":-92,"dy":265.5,"t":21177},{"dx":-102,"dy":273.5,"t":21219},{"dx":-186,"dy":304.5,"t":21367},{"dx":-211,"dy":320.5,"t":21403},{"dx":-203,"dy":328.5,"t":21436}],[{"dx":72,"dy":152,"t":22461},{"dx":88,"dy":183,"t":22495},{"dx":132,"dy":277,"t":22552},{"dx":203,"dy":322,"t":22587},{"dx":246,"dy":429,"t":22642},{"dx":262,"dy":488,"t":22676},{"dx":276,"dy":526,"t":22732},{"dx":268,"dy":522,"t":22769},{"dx":243,"dy":497,"t":22825},{"dx":230,"dy":459,"t":22859},{"dx":223,"dy":349,"t":22914},{"dx":240,"dy":298,"t":22951},{"dx":237,"dy":209,"t":23009},{"dx":232,"dy":179,"t":23065},{"dx":200,"dy":113,"t":23124},{"dx":213,"dy":90,"t":23161},{"dx":230,"dy":67,"t":23216},{"dx":235,"dy":64,"t":23251},{"dx":172,"dy":114,"t":23311},{"dx":124,"dy":142,"t":23349},{"dx":68,"dy":201,"t":23411},{"dx":64,"dy":222,"t":23446},{"dx":76,"dy":242,"t":23504},{"dx":86,"dy":243,"t":23540},{"dx":111,"dy":254,"t":23598},{"dx":123,"dy":256,"t":23635},{"dx":136,"dy":268,"t":23692},{"dx":136,"dy":277,"t":23727},{"dx":169,"dy":264,"t":23784},{"dx":196,"dy":248,"t":23821},{"dx":216,"dy":212,"t":23883},{"dx":216,"dy":188,"t":23920},{"dx":243,"dy":150,"t":23978},{"dx":249,"dy":133,"t":24013},{"dx":235,"dy":125,"t":24090},{"dx":200,"dy":131,"t":24124},{"dx":192,"dy":135,"t":24183},{"dx":196,"dy":134,"t":24225},{"dx":137,"dy":153,"t":24293},{"dx":115,"dy":177,"t":24330},{"dx":66,"dy":194,"t":24388},{"dx":63,"dy":195,"t":24434},{"dx":67,"dy":187,"t":24467}],[{"dx":-195,"dy":193.5,"t":25485},{"dx":-198,"dy":196.5,"t":25522},{"dx":-181,"dy":188.5,"t":25580},{"dx":-164,"dy":180.5,"t":25617},{"dx":-58,"dy":130.5,"t":25674},{"dx":11,"dy":101.5,"t":25712},{"dx":77,"dy":94.5,"t":25770},{"dx":92,"dy":99.5,"t":25804},{"dx":119,"dy":107.5,"t":25863},{"dx":127,"dy":109.5,"t":25899},{"dx":100,"dy":90.5,"t":25959},{"dx":77,"dy":90.5,"t":25992},{"dx":34,"dy":95.5,"t":26061},{"dx":9,"dy":104.5,"t":26094},{"dx":-62,"dy":112.5,"t":26153},{"dx":-90,"dy":114.5,"t":26188},{"dx":-98,"dy":112.5,"t":26244},{"dx":-99,"dy":109.5,"t":26279},{"dx":-91,"dy":113.5,"t":26336},{"dx":-81,"dy":111.5,"t":26372},{"dx":-85,"dy":114.5,"t":26433},{"dx":-95,"dy":122.5,"t":26470},{"dx":-122,"dy":129.5,"t":26529},{"dx":-137,"dy":130.5,"t":26564},{"dx":-126,"dy":120.5,"t":26619},{"dx":-105,"dy":111.5,"t":26656},{"dx":-89,"dy":108.5,"t":26717},{"dx":-79,"dy":114.5,"t":26757},{"dx":-48,"dy":119.5,"t":26815},{"dx":-52,"dy":115.5,"t":26854},{"dx":-23,"dy":108.5,"t":26915},{"dx":-16,"dy":103.5,"t":26952},{"dx":-16,"dy":103.5,"t":27007},{"dx":-22,"dy":107.5,"t":27060},{"dx":-28,"dy":114.5,"t":27118},{"dx":-30,"dy":117.5,"t":27155},{"dx":-46,"dy":109.5,"t":27212},{"dx":-46,"dy":105.5,"t":27251},{"dx":-55,"dy":113.5,"t":27312},{"dx":-73,"dy":110.5,"t":27353},{"dx":-87,"dy":109.5,"t":27417},{"dx":-81,"dy":110.5,"t":27456},{"dx":-88,"dy":103.5,"t":27495}],[{"dx":-101,"dy":73.5,"t":28486},{"dx":-126,"dy":61.5,"t":28672},{"dx":-174,"dy":66.5,"t":28711},{"dx":-216,"dy":83.5,"t":28770},{"dx":-212,"dy":89.5,"t":28807},{"dx":-229,"dy":108.5,"t":28869},{"dx":-237,"dy":118.5,"t":28907},{"dx":-237,"dy":127.5,"t":28964},{"dx":-231,"dy":131.5,"t":29002},{"dx":-212,"dy":136.5,"t":29076},{"dx":-201,"dy":138.5,"t":29113},{"dx":-184,"dy":130.5,"t":29171},{"dx":-177,"dy":122.5,"t":29209},{"dx":-215,"dy":107.5,"t":29266},{"dx":-233,"dy":102.5,"t":29300},{"dx":-249,"dy":108.5,"t":29362},{"dx":-250,"dy":118.5,"t":29396},{"dx":-224,"dy":127.5,"t":29453},{"dx":-219,"dy":132.5,"t":29490},{"dx":-227,"dy":132.5,"t":29549},{"dx":-237,"dy":128.5,"t":29585},{"dx":-288,"dy":126.5,"t":29641},{"dx":-317,"dy":125.5,"t":29678},{"dx":-336,"dy":119.5,"t":29741},{"dx":-330,"dy":113.5,"t":29779},{"dx":-314,"dy":119.5,"t":29834},{"dx":-295,"dy":124.5,"t":29870},{"dx":-286,"dy":134.5,"t":29930},{"dx":-286,"dy":140.5,"t":29966},{"dx":-289,"dy":141.5,"t":30035},{"dx":-293,"dy":137.5,"t":30072},{"dx":-277,"dy":134.5,"t":30130},{"dx":-288,"dy":134.5,"t":30168},{"dx":-266,"dy":114.5,"t":30227},{"dx":-272,"dy":112.5,"t":30263},{"dx":-281,"dy":99.5,"t":30323},{"dx":-281,"dy":98.5,"t":30358},{"dx":-252,"dy":76.5,"t":30417},{"dx":-240,"dy":72.5,"t":30456},{"dx":-249,"dy":74.5,"t":30516},{"dx":-266,"dy":78.5,"t":30537}],[{"dx":-114,"dy":295,"t":31562},{"dx":-173,"dy":328,"t":31598},{"dx":-187,"dy":374,"t":31655},{"dx":-174,"dy":380,"t":31691},{"dx":-119,"dy":360,"t":31749},{"dx":-93,"dy":348,"t":31787},{"dx":-70,"dy":319,"t":31842},{"dx":-50,"dy":302,"t":31878},{"dx":-18,"dy":294,"t":31935},{"dx":0,"dy":294,"t":31971},{"dx":-21,"dy":261,"t":32039},{"dx":-39,"dy":243,"t":32076},{"dx":-47,"dy":209,"t":32134},{"dx":-45,"dy":197,"t":32171},{"dx":-15,"dy":182,"t":32228},{"dx":1,"dy":178,"t":32265},{"dx":1,"dy":145,"t":32326},{"dx":6,"dy":129,"t":32362},{"dx":1,"dy":113,"t":32422},{"dx":-7,"dy":111,"t":32458},{"dx":-32,"dy":133,"t":32515},{"dx":-42,"dy":147,"t":32555},{"dx":-37,"dy":138,"t":32615},{"dx":-37,"dy":128,"t":32652},{"dx":-48,"dy":151,"t":32712},{"dx":-59,"dy":168,"t":32750},{"dx":-58,"dy":182,"t":32812},{"dx":-51,"dy":193,"t":32848},{"dx":-53,"dy":188,"t":32906},{"dx":-60,"dy":176,"t":32942},{"dx":-39,"dy":163,"t":33007},{"dx":-29,"dy":160,"t":33070},{"dx":-21,"dy":157,"t":33124},{"dx":-23,"dy":157,"t":33160},{"dx":-50,"dy":184,"t":33217},{"dx":-73,"dy":208,"t":33255},{"dx":-143,"dy":274,"t":33311},{"dx":-189,"dy":305,"t":33349},{"dx":-226,"dy":354,"t":33407},{"dx":-248,"dy":363,"t":33446},{"dx":-177,"dy":399,"t":33505},{"dx":-123,"dy":409,"t":33551},{"dx":-75,"dy":379,"t":33596}],[{"dx":-291,"dy":-141,"t":34586},{"dx":-273,"dy":-125,"t":34623},{"dx":-271,"dy":-135,"t":34678},{"dx":-261,"dy":-129,"t":34712},{"dx":-275,"dy":-150,"t":34771},{"dx":-284,"dy":-156,"t":34807},{"dx":-283,"dy":-137,"t":34868},{"dx":-281,"dy":-128,"t":34902},{"dx":-270,"dy":-116,"t":34958},{"dx":-265,"dy":-113,"t":34997},{"dx":-271,"dy":-117,"t":35072},{"dx":-279,"dy":-121,"t":35113},{"dx":-276,"dy":-130,"t":35169},{"dx":-290,"dy":-127,"t":35204},{"dx":-295,"dy":-132,"t":35269},{"dx":-303,"dy":-131,"t":35302},{"dx":-290,"dy":-140,"t":35359},{"dx":-283,"dy":-142,"t":35397},{"dx":-284,"dy":-154,"t":35456},{"dx":-290,"dy":-162,"t":35496},{"dx":-303,"dy":-167,"t":35552},{"dx":-313,"dy":-169,"t":35590},{"dx":-315,"dy":-161,"t":35650},{"dx":-315,"dy":-163,"t":35687},{"dx":-317,"dy":-162,"t":35742},{"dx":-312,"dy":-162,"t":35778},{"dx":-310,"dy":-156,"t":35834},{"dx":-311,"dy":-151,"t":35869},{"dx":-300,"dy":-155,"t":35925},{"dx":-292,"dy":-155,"t":35960},{"dx":-292,"dy":-155,"t":36035},{"dx":-295,"dy":-158,"t":36070},{"dx":-310,"dy":-148,"t":36139},{"dx":-312,"dy":-147,"t":36261},{"dx":-277,"dy":-128,"t":36331},{"dx":-261,"dy":-126,"t":36368},{"dx":-279,"dy":-131,"t":36429},{"dx":-288,"dy":-144,"t":36466},{"dx":-305,"dy":-159,"t":36521},{"dx":-314,"dy":-155,"t":36562},{"dx":-304,"dy":-142,"t":36602}],[{"dx":-148,"dy":299.5,"t":37609},{"dx":-133,"dy":297.5,"t":37667},{"dx":-130,"dy":291.5,"t":37700},{"dx":-119,"dy":278.5,"t":37763},{"dx":-105,"dy":282.5,"t":37801},{"dx":-109,"dy":280.5,"t":37868},{"dx":-110,"dy":281.5,"t":37914},{"dx":-110,"dy":280.5,"t":37985},{"dx":-110,"dy":279.5,"t":38035},{"dx":-106,"dy":279.5,"t":38092},{"dx":-104,"dy":280.5,"t":38128},{"dx":-101,"dy":273.5,"t":38184},{"dx":-101,"dy":267.5,"t":38219},{"dx":-21,"dy":239.5,"t":38280},{"dx":48,"dy":221.5,"t":38318},{"dx":119,"dy":244.5,"t":38379},{"dx":141,"dy":276.5,"t":38413},{"dx":141,"dy":309.5,"t":38475},{"dx":134,"dy":324.5,"t":38515},{"dx":111,"dy":362.5,"t":38577},{"dx":97,"dy":383.5,"t":38618},{"dx":39,"dy":375.5,"t":38677},{"dx":25,"dy":365.5,"t":38712},{"dx":-39,"dy":363.5,"t":38767},{"dx":-58,"dy":360.5,"t":38801},{"dx":-76,"dy":358.5,"t":38859},{"dx":-77,"dy":358.5,"t":38899},{"dx":-115,"dy":344.5,"t":38955},{"dx":-114,"dy":332.5,"t":38992},{"dx":-133,"dy":322.5,"t":39066},{"dx":-145,"dy":317.5,"t":39113},{"dx":-167,"dy":332.5,"t":39168},{"dx":-174,"dy":345.5,"t":39204},{"dx":-151,"dy":343.5,"t":39260},{"dx":-136,"dy":340.5,"t":39299},{"dx":-105,"dy":333.5,"t":39362},{"dx":-91,"dy":327.5,"t":39403},{"dx":-106,"dy":343.5,"t":39460},{"dx":-119,"dy":359.5,"t":39497},{"dx":-79,"dy":343.5,"t":39554}]],"percent_in_roi":[85.36585365853658,14.634146341463413,4.651162790697675,14.634146341463413,97.5,0,0,0,74.4186046511628,4.878048780487805,16.27906976744186,0,0],"average_offset":[{"x":39.53658536585366,"y":-79.70731707317073,"r":55.30939960541501},{"x":-265.7317073170732,"y":248.3658536585366,"r":157.28445871037098},{"x":-99.23255813953489,"y":195.32558139534885,"r":71.1491855059576},{"x":-238.65853658536585,"y":-29.902439024390244,"r":69.30089407998676},{"x":-58.3,"y":26.55,"r":49.586158382459516},{"x":8.279069767441861,"y":283.83720930232556,"r":61.9152624930522},{"x":-136.32558139534885,"y":287.59302325581393,"r":57.78064579653071},{"x":174.09302325581396,"y":234.1627906976744,"r":106.36603230616424},{"x":-51.627906976744185,"y":117.70930232558139,"r":39.04911552739891},{"x":-246.26829268292684,"y":112.8170731707317,"r":40.801444609388135},{"x":-71.06976744186046,"y":236.69767441860466,"r":92.94874050398083},{"x":-291.219512195122,"y":-143.41463414634146,"r":20.287581441306816},{"x":-63.425,"y":315.075,"r":101.51556568686716}],"samples_per_sec":"20.07","clicks":15,"pattern":"cond","trial_type":"webgazer-validate","trial_index":25,"time_elapsed":187569,"internal_node_id":"0.0-10.0-3.2","validation_points":[[15,85],[85,15],[50,50],[75,75],[25,75],[25,25],[62.5,37.5],[15,15],[37.5,62.5],[62.5,62.5],[75,25],[85,85],[37.5,37.5]],"user_agent":"Mozilla/5.0 (Macintosh; Intel Mac OS X 11_2_0) AppleWebKit/537.36 (KHTML, like Gecko) Chrome/88.0.4324.150 Safari/537.36","screen_width_px":1440,"screen_height_px":900},{"rt":1253.0999999726191,"stimulus":"\n      <p>Round complete.</p>\n      <p>You can move a little bit, but please try to return you head to the same general location before continuing.</p>\n    ","response":0,"trial_type":"html-button-response","trial_index":26,"time_elapsed":188824,"internal_node_id":"0.0-10.0-4.2","user_agent":"Mozilla/5.0 (Macintosh; Intel Mac OS X 11_2_0) AppleWebKit/537.36 (KHTML, like Gecko) Chrome/88.0.4324.150 Safari/537.36","screen_width_px":1440,"screen_height_px":900},{"trial_type":"webgazer-init-camera","trial_index":27,"time_elapsed":190446,"internal_node_id":"0.0-10.0-5.2","user_agent":"Mozilla/5.0 (Macintosh; Intel Mac OS X 11_2_0) AppleWebKit/537.36 (KHTML, like Gecko) Chrome/88.0.4324.150 Safari/537.36","screen_width_px":1440,"screen_height_px":900},{"rt":959.2299999203533,"stimulus":"\n      <p>Calibration phase next.</p>\n      <p>Click on the dots.</p>\n    ","response":0,"trial_type":"html-button-response","trial_index":28,"time_elapsed":191406,"internal_node_id":"0.0-10.0-0.3","user_agent":"Mozilla/5.0 (Macintosh; Intel Mac OS X 11_2_0) AppleWebKit/537.36 (KHTML, like Gecko) Chrome/88.0.4324.150 Safari/537.36","screen_width_px":1440,"screen_height_px":900},{"trial_type":"webgazer-calibrate","trial_index":29,"time_elapsed":215126,"internal_node_id":"0.0-10.0-1.3","user_agent":"Mozilla/5.0 (Macintosh; Intel Mac OS X 11_2_0) AppleWebKit/537.36 (KHTML, like Gecko) Chrome/88.0.4324.150 Safari/537.36","screen_width_px":1440,"screen_height_px":900},{"rt":796.9199999934062,"stimulus":"\n      <p>Validation phase next.</p>\n      <p>Look at the dots.</p>\n    ","response":0,"trial_type":"html-button-response","trial_index":30,"time_elapsed":215925,"internal_node_id":"0.0-10.0-2.3","user_agent":"Mozilla/5.0 (Macintosh; Intel Mac OS X 11_2_0) AppleWebKit/537.36 (KHTML, like Gecko) Chrome/88.0.4324.150 Safari/537.36","screen_width_px":1440,"screen_height_px":900},{"raw_gaze":[[{"dx":481,"dy":95,"t":1116},{"dx":512,"dy":95,"t":1153},{"dx":497,"dy":14,"t":1209},{"dx":482,"dy":-56,"t":1245},{"dx":394,"dy":-78,"t":1303},{"dx":300,"dy":-64,"t":1342},{"dx":174,"dy":-102,"t":1402},{"dx":71,"dy":-131,"t":1438},{"dx":-22,"dy":-14,"t":1496},{"dx":-59,"dy":26,"t":1532},{"dx":-98,"dy":-71,"t":1587},{"dx":-141,"dy":-183,"t":1624},{"dx":81,"dy":-245,"t":1682},{"dx":202,"dy":-291,"t":1716},{"dx":248,"dy":-299,"t":1772},{"dx":300,"dy":-351,"t":1813},{"dx":309,"dy":-347,"t":1877},{"dx":331,"dy":-408,"t":1917},{"dx":363,"dy":-432,"t":1977},{"dx":373,"dy":-564,"t":2008},{"dx":320,"dy":-545,"t":2071},{"dx":323,"dy":-607,"t":2123},{"dx":394,"dy":-469,"t":2181},{"dx":415,"dy":-491,"t":2229},{"dx":493,"dy":-267,"t":2300},{"dx":523,"dy":-184,"t":2342},{"dx":652,"dy":-107,"t":2402},{"dx":703,"dy":-104,"t":2441},{"dx":696,"dy":-58,"t":2502},{"dx":688,"dy":-55,"t":2540},{"dx":629,"dy":-27,"t":2600},{"dx":614,"dy":-42,"t":2639},{"dx":524,"dy":-135,"t":2698},{"dx":503,"dy":-215,"t":2736},{"dx":448,"dy":-253,"t":2796},{"dx":415,"dy":-297,"t":2836},{"dx":351,"dy":-227,"t":2896},{"dx":361,"dy":-208,"t":2934},{"dx":334,"dy":-186,"t":2995},{"dx":359,"dy":-208,"t":3032},{"dx":376,"dy":-154,"t":3127},{"dx":425,"dy":-149,"t":3142}],[{"dx":53,"dy":26.5,"t":4140},{"dx":65,"dy":24.5,"t":4176},{"dx":55,"dy":74.5,"t":4237},{"dx":65,"dy":94.5,"t":4274},{"dx":70,"dy":134.5,"t":4333},{"dx":79,"dy":155.5,"t":4373},{"dx":58,"dy":139.5,"t":4433},{"dx":58,"dy":129.5,"t":4471},{"dx":79,"dy":127.5,"t":4534},{"dx":82,"dy":117.5,"t":4574},{"dx":104,"dy":144.5,"t":4632},{"dx":137,"dy":154.5,"t":4671},{"dx":178,"dy":190.5,"t":4733},{"dx":191,"dy":203.5,"t":4771},{"dx":173,"dy":176.5,"t":4834},{"dx":146,"dy":154.5,"t":4878},{"dx":86,"dy":125.5,"t":4996},{"dx":45,"dy":109.5,"t":5034},{"dx":21,"dy":79.5,"t":5092},{"dx":23,"dy":71.5,"t":5148},{"dx":-25,"dy":39.5,"t":5208},{"dx":-34,"dy":33.5,"t":5248},{"dx":-104,"dy":61.5,"t":5310},{"dx":-149,"dy":78.5,"t":5349},{"dx":-161,"dy":86.5,"t":5410},{"dx":-175,"dy":92.5,"t":5444},{"dx":-134,"dy":22.5,"t":5502},{"dx":-112,"dy":8.5,"t":5539},{"dx":-122,"dy":31.5,"t":5597},{"dx":-147,"dy":34.5,"t":5636},{"dx":-155,"dy":50.5,"t":5693},{"dx":-159,"dy":45.5,"t":5730},{"dx":-109,"dy":41.5,"t":5788},{"dx":-87,"dy":46.5,"t":5823},{"dx":-41,"dy":43.5,"t":5881},{"dx":-25,"dy":50.5,"t":5926},{"dx":22,"dy":53.5,"t":5986},{"dx":27,"dy":48.5,"t":6023},{"dx":-9,"dy":73.5,"t":6083},{"dx":-32,"dy":81.5,"t":6134},{"dx":-23,"dy":68.5,"t":6173}],[{"dx":120,"dy":35,"t":7181},{"dx":63,"dy":16,"t":7218},{"dx":45,"dy":2,"t":7274},{"dx":53,"dy":-4,"t":7314},{"dx":97,"dy":-24,"t":7374},{"dx":89,"dy":-29,"t":7413},{"dx":115,"dy":-49,"t":7471},{"dx":118,"dy":-44,"t":7511},{"dx":62,"dy":-44,"t":7572},{"dx":40,"dy":-47,"t":7610},{"dx":41,"dy":-56,"t":7670},{"dx":55,"dy":-67,"t":7706},{"dx":61,"dy":-62,"t":7762},{"dx":58,"dy":-70,"t":7797},{"dx":83,"dy":-77,"t":7855},{"dx":88,"dy":-74,"t":7895},{"dx":89,"dy":-93,"t":7953},{"dx":93,"dy":-111,"t":7988},{"dx":106,"dy":-89,"t":8047},{"dx":100,"dy":-88,"t":8084},{"dx":79,"dy":-54,"t":8151},{"dx":75,"dy":-39,"t":8188},{"dx":77,"dy":-24,"t":8246},{"dx":82,"dy":-23,"t":8284},{"dx":73,"dy":-10,"t":8340},{"dx":52,"dy":-5,"t":8378},{"dx":46,"dy":-8,"t":8439},{"dx":59,"dy":-8,"t":8478},{"dx":85,"dy":9,"t":8537},{"dx":127,"dy":-8,"t":8574},{"dx":71,"dy":-26,"t":8632},{"dx":43,"dy":-29,"t":8670},{"dx":28,"dy":3,"t":8727},{"dx":5,"dy":22,"t":8762},{"dx":45,"dy":3,"t":8816},{"dx":64,"dy":2,"t":8854},{"dx":83,"dy":-2,"t":8913},{"dx":89,"dy":-14,"t":8951},{"dx":33,"dy":-22,"t":9009},{"dx":12,"dy":-25,"t":9049},{"dx":-8,"dy":-29,"t":9130},{"dx":-17,"dy":-28,"t":9166},{"dx":-16,"dy":-29,"t":9199}],[{"dx":29,"dy":32.5,"t":10186},{"dx":30,"dy":30.5,"t":10247},{"dx":30,"dy":29.5,"t":10286},{"dx":50,"dy":59.5,"t":10342},{"dx":67,"dy":67.5,"t":10379},{"dx":38,"dy":37.5,"t":10437},{"dx":24,"dy":17.5,"t":10475},{"dx":44,"dy":59.5,"t":10536},{"dx":56,"dy":69.5,"t":10573},{"dx":107,"dy":149.5,"t":10633},{"dx":143,"dy":190.5,"t":10667},{"dx":205,"dy":267.5,"t":10727},{"dx":240,"dy":315.5,"t":10761},{"dx":238,"dy":302.5,"t":10819},{"dx":220,"dy":280.5,"t":10858},{"dx":124,"dy":274.5,"t":10917},{"dx":56,"dy":266.5,"t":10956},{"dx":0,"dy":221.5,"t":11017},{"dx":7,"dy":204.5,"t":11058},{"dx":-2,"dy":165.5,"t":11125},{"dx":-16,"dy":143.5,"t":11162},{"dx":-29,"dy":103.5,"t":11222},{"dx":-40,"dy":89.5,"t":11259},{"dx":-5,"dy":40.5,"t":11318},{"dx":10,"dy":19.5,"t":11362},{"dx":35,"dy":26.5,"t":11421},{"dx":46,"dy":30.5,"t":11457},{"dx":23,"dy":42.5,"t":11517},{"dx":11,"dy":50.5,"t":11556},{"dx":25,"dy":85.5,"t":11617},{"dx":26,"dy":87.5,"t":11656},{"dx":11,"dy":122.5,"t":11718},{"dx":13,"dy":125.5,"t":11754},{"dx":48,"dy":135.5,"t":11812},{"dx":65,"dy":132.5,"t":11850},{"dx":23,"dy":79.5,"t":11911},{"dx":11,"dy":76.5,"t":11948},{"dx":8,"dy":52.5,"t":12011},{"dx":12,"dy":47.5,"t":12046},{"dx":-20,"dy":76.5,"t":12119},{"dx":-33,"dy":78.5,"t":12156},{"dx":-59,"dy":84.5,"t":12215},{"dx":-71,"dy":89.5,"t":12235}],[{"dx":-181,"dy":28,"t":13263},{"dx":-208,"dy":22,"t":13300},{"dx":-260,"dy":63,"t":13358},{"dx":-288,"dy":76,"t":13404},{"dx":-309,"dy":67,"t":13469},{"dx":-321,"dy":55,"t":13507},{"dx":-302,"dy":81,"t":13566},{"dx":-287,"dy":93,"t":13603},{"dx":-278,"dy":47,"t":13661},{"dx":-257,"dy":24,"t":13697},{"dx":-225,"dy":0,"t":13756},{"dx":-215,"dy":-11,"t":13794},{"dx":-208,"dy":-24,"t":13854},{"dx":-209,"dy":-27,"t":13891},{"dx":-209,"dy":-31,"t":13947},{"dx":-207,"dy":-33,"t":13997},{"dx":-211,"dy":-44,"t":14057},{"dx":-210,"dy":-46,"t":14092},{"dx":-225,"dy":-49,"t":14160},{"dx":-235,"dy":-59,"t":14195},{"dx":-256,"dy":-72,"t":14260},{"dx":-263,"dy":-87,"t":14295},{"dx":-256,"dy":-73,"t":14355},{"dx":-255,"dy":-71,"t":14392},{"dx":-230,"dy":-84,"t":14448},{"dx":-222,"dy":-96,"t":14482},{"dx":-220,"dy":-87,"t":14541},{"dx":-227,"dy":-76,"t":14576},{"dx":-234,"dy":-62,"t":14636},{"dx":-239,"dy":-58,"t":14675},{"dx":-232,"dy":-14,"t":14759},{"dx":-233,"dy":8,"t":14815},{"dx":-227,"dy":28,"t":14873},{"dx":-222,"dy":28,"t":14908},{"dx":-231,"dy":27,"t":14966},{"dx":-219,"dy":12,"t":15001},{"dx":-209,"dy":5,"t":15059},{"dx":-209,"dy":6,"t":15106},{"dx":-222,"dy":-6,"t":15199},{"dx":-219,"dy":-15,"t":15239},{"dx":-236,"dy":-25,"t":15278}],[{"dx":16,"dy":24,"t":16294},{"dx":27,"dy":18,"t":16331},{"dx":46,"dy":37,"t":16390},{"dx":53,"dy":57,"t":16427},{"dx":47,"dy":96,"t":16482},{"dx":35,"dy":114,"t":16522},{"dx":25,"dy":117,"t":16579},{"dx":25,"dy":107,"t":16615},{"dx":32,"dy":122,"t":16673},{"dx":37,"dy":142,"t":16710},{"dx":94,"dy":129,"t":16765},{"dx":108,"dy":118,"t":16802},{"dx":94,"dy":102,"t":16859},{"dx":111,"dy":92,"t":16896},{"dx":125,"dy":110,"t":16954},{"dx":140,"dy":119,"t":16992},{"dx":148,"dy":114,"t":17052},{"dx":149,"dy":112,"t":17088},{"dx":135,"dy":187,"t":17159},{"dx":128,"dy":238,"t":17196},{"dx":111,"dy":237,"t":17255},{"dx":111,"dy":263,"t":17292},{"dx":92,"dy":265,"t":17352},{"dx":87,"dy":281,"t":17392},{"dx":38,"dy":227,"t":17452},{"dx":23,"dy":199,"t":17489},{"dx":9,"dy":159,"t":17550},{"dx":4,"dy":144,"t":17587},{"dx":65,"dy":125,"t":17647},{"dx":100,"dy":127,"t":17681},{"dx":85,"dy":110,"t":17739},{"dx":72,"dy":104,"t":17775},{"dx":48,"dy":96,"t":17834},{"dx":38,"dy":94,"t":17870},{"dx":59,"dy":97,"t":17925},{"dx":75,"dy":107,"t":17961},{"dx":72,"dy":130,"t":18015},{"dx":83,"dy":130,"t":18061},{"dx":104,"dy":120,"t":18133},{"dx":113,"dy":121,"t":18172},{"dx":61,"dy":135,"t":18232},{"dx":52,"dy":146,"t":18270},{"dx":41,"dy":145,"t":18307}],[{"dx":34,"dy":51,"t":19331},{"dx":33,"dy":45,"t":19368},{"dx":6,"dy":26,"t":19428},{"dx":-17,"dy":17,"t":19466},{"dx":-52,"dy":-19,"t":19526},{"dx":-73,"dy":-24,"t":19568},{"dx":-107,"dy":-41,"t":19628},{"dx":-124,"dy":-60,"t":19679},{"dx":-138,"dy":-51,"t":19806},{"dx":-134,"dy":-50,"t":19848},{"dx":-140,"dy":-54,"t":19905},{"dx":-139,"dy":-60,"t":19939},{"dx":-160,"dy":-18,"t":19998},{"dx":-197,"dy":7,"t":20041},{"dx":-157,"dy":14,"t":20109},{"dx":-145,"dy":21,"t":20149},{"dx":-121,"dy":44,"t":20206},{"dx":-114,"dy":52,"t":20243},{"dx":-105,"dy":35,"t":20299},{"dx":-113,"dy":24,"t":20337},{"dx":-101,"dy":20,"t":20396},{"dx":-120,"dy":20,"t":20433},{"dx":-74,"dy":12,"t":20493},{"dx":-62,"dy":12,"t":20532},{"dx":-32,"dy":5,"t":20590},{"dx":-16,"dy":-2,"t":20630},{"dx":2,"dy":-11,"t":20689},{"dx":4,"dy":-14,"t":20731},{"dx":0,"dy":4,"t":20792},{"dx":-17,"dy":21,"t":20829},{"dx":-96,"dy":35,"t":20888},{"dx":-116,"dy":40,"t":20925},{"dx":-163,"dy":30,"t":20984},{"dx":-187,"dy":19,"t":21023},{"dx":-196,"dy":22,"t":21079},{"dx":-186,"dy":34,"t":21137},{"dx":-122,"dy":51,"t":21194},{"dx":-82,"dy":50,"t":21229},{"dx":-27,"dy":36,"t":21286},{"dx":-9,"dy":31,"t":21321},{"dx":16,"dy":6,"t":21356}],[{"dx":-62,"dy":238.5,"t":22348},{"dx":-65,"dy":302.5,"t":22413},{"dx":-80,"dy":356.5,"t":22451},{"dx":-131,"dy":390.5,"t":22508},{"dx":-182,"dy":406.5,"t":22543},{"dx":-165,"dy":324.5,"t":22598},{"dx":-146,"dy":296.5,"t":22634},{"dx":-73,"dy":171.5,"t":22690},{"dx":-66,"dy":128.5,"t":22725},{"dx":-39,"dy":92.5,"t":22787},{"dx":-41,"dy":78.5,"t":22826},{"dx":-29,"dy":46.5,"t":22902},{"dx":-18,"dy":43.5,"t":22940},{"dx":13,"dy":34.5,"t":23000},{"dx":31,"dy":40.5,"t":23038},{"dx":78,"dy":17.5,"t":23094},{"dx":104,"dy":-7.5,"t":23145},{"dx":141,"dy":-22.5,"t":23204},{"dx":154,"dy":-17.5,"t":23238},{"dx":172,"dy":-33.5,"t":23297},{"dx":157,"dy":-25.5,"t":23337},{"dx":91,"dy":1.5,"t":23399},{"dx":71,"dy":4.5,"t":23436},{"dx":16,"dy":34.5,"t":23497},{"dx":-16,"dy":57.5,"t":23537},{"dx":-52,"dy":65.5,"t":23597},{"dx":-63,"dy":63.5,"t":23638},{"dx":-97,"dy":71.5,"t":23698},{"dx":-111,"dy":69.5,"t":23735},{"dx":-48,"dy":21.5,"t":23794},{"dx":19,"dy":1.5,"t":23839},{"dx":88,"dy":-15.5,"t":23896},{"dx":106,"dy":-14.5,"t":23931},{"dx":53,"dy":14.5,"t":23989},{"dx":15,"dy":21.5,"t":24027},{"dx":-33,"dy":38.5,"t":24085},{"dx":-64,"dy":42.5,"t":24133},{"dx":-77,"dy":62.5,"t":24188},{"dx":-80,"dy":90.5,"t":24226},{"dx":-69,"dy":112.5,"t":24283},{"dx":-59,"dy":111.5,"t":24317},{"dx":-37,"dy":112.5,"t":24378},{"dx":-27,"dy":115.5,"t":24399}],[{"dx":-83,"dy":-14,"t":25383},{"dx":-89,"dy":-8,"t":25472},{"dx":-86,"dy":-10,"t":25510},{"dx":-63,"dy":51,"t":25569},{"dx":-72,"dy":70,"t":25607},{"dx":-25,"dy":144,"t":25662},{"dx":24,"dy":193,"t":25699},{"dx":27,"dy":281,"t":25758},{"dx":19,"dy":298,"t":25796},{"dx":-4,"dy":241,"t":25857},{"dx":-29,"dy":194,"t":25894},{"dx":-37,"dy":116,"t":25949},{"dx":-52,"dy":77,"t":25983},{"dx":-42,"dy":25,"t":26042},{"dx":-42,"dy":3,"t":26080},{"dx":-42,"dy":-23,"t":26147},{"dx":-41,"dy":-35,"t":26182},{"dx":-36,"dy":-38,"t":26245},{"dx":-32,"dy":-33,"t":26280},{"dx":-30,"dy":-32,"t":26337},{"dx":-23,"dy":-27,"t":26372},{"dx":-17,"dy":-30,"t":26429},{"dx":-22,"dy":-29,"t":26468},{"dx":-21,"dy":-34,"t":26530},{"dx":-17,"dy":-38,"t":26568},{"dx":-5,"dy":-36,"t":26626},{"dx":3,"dy":-31,"t":26661},{"dx":9,"dy":-22,"t":26721},{"dx":8,"dy":-18,"t":26756},{"dx":6,"dy":-8,"t":26817},{"dx":5,"dy":-3,"t":26853},{"dx":-4,"dy":4,"t":26914},{"dx":-10,"dy":5,"t":26948},{"dx":-14,"dy":1,"t":27005},{"dx":-9,"dy":6,"t":27039},{"dx":-32,"dy":29,"t":27095},{"dx":-60,"dy":42,"t":27149},{"dx":-78,"dy":40,"t":27216},{"dx":-74,"dy":31,"t":27251},{"dx":-70,"dy":34,"t":27308},{"dx":-69,"dy":43,"t":27344},{"dx":-56,"dy":54,"t":27407},{"dx":-53,"dy":56,"t":27422}],[{"dx":92,"dy":17,"t":28448},{"dx":69,"dy":24,"t":28505},{"dx":60,"dy":27,"t":28538},{"dx":42,"dy":26,"t":28595},{"dx":34,"dy":23,"t":28633},{"dx":5,"dy":40,"t":28690},{"dx":3,"dy":57,"t":28725},{"dx":8,"dy":94,"t":28783},{"dx":6,"dy":108,"t":28818},{"dx":-13,"dy":127,"t":28873},{"dx":-14,"dy":108,"t":28909},{"dx":-19,"dy":34,"t":28965},{"dx":-22,"dy":12,"t":29004},{"dx":-39,"dy":38,"t":29061},{"dx":-62,"dy":73,"t":29121},{"dx":-126,"dy":189,"t":29177},{"dx":-165,"dy":237,"t":29214},{"dx":-157,"dy":287,"t":29271},{"dx":-147,"dy":320,"t":29306},{"dx":-77,"dy":420,"t":29363},{"dx":-71,"dy":475,"t":29399},{"dx":-84,"dy":464,"t":29478},{"dx":-120,"dy":483,"t":29520},{"dx":-104,"dy":514,"t":29577},{"dx":-132,"dy":543,"t":29613},{"dx":-243,"dy":506,"t":29678},{"dx":-281,"dy":445,"t":29720},{"dx":-296,"dy":295,"t":29780},{"dx":-324,"dy":237,"t":29816},{"dx":-282,"dy":168,"t":29874},{"dx":-265,"dy":149,"t":29911},{"dx":-193,"dy":113,"t":29971},{"dx":-178,"dy":123,"t":30007},{"dx":-116,"dy":64,"t":30064},{"dx":-94,"dy":50,"t":30111},{"dx":-90,"dy":110,"t":30165},{"dx":-129,"dy":168,"t":30199},{"dx":-135,"dy":154,"t":30258},{"dx":-144,"dy":128,"t":30296},{"dx":-137,"dy":112,"t":30357},{"dx":-169,"dy":92,"t":30395},{"dx":-198,"dy":128,"t":30432}],[{"dx":-131,"dy":29.5,"t":31445},{"dx":-117,"dy":11.5,"t":31482},{"dx":-130,"dy":-6.5,"t":31538},{"dx":-112,"dy":-26.5,"t":31576},{"dx":-125,"dy":-35.5,"t":31638},{"dx":-120,"dy":-47.5,"t":31678},{"dx":-126,"dy":2.5,"t":31735},{"dx":-169,"dy":57.5,"t":31778},{"dx":-173,"dy":34.5,"t":31844},{"dx":-152,"dy":-4.5,"t":31878},{"dx":-137,"dy":17.5,"t":31938},{"dx":-121,"dy":-0.5,"t":31977},{"dx":-139,"dy":30.5,"t":32037},{"dx":-153,"dy":49.5,"t":32075},{"dx":-203,"dy":54.5,"t":32145},{"dx":-219,"dy":40.5,"t":32184},{"dx":-234,"dy":84.5,"t":32245},{"dx":-238,"dy":98.5,"t":32280},{"dx":-257,"dy":118.5,"t":32339},{"dx":-269,"dy":137.5,"t":32376},{"dx":-209,"dy":68.5,"t":32470},{"dx":-173,"dy":36.5,"t":32520},{"dx":-163,"dy":16.5,"t":32615},{"dx":-163,"dy":18.5,"t":32659},{"dx":-172,"dy":73.5,"t":32717},{"dx":-180,"dy":94.5,"t":32751},{"dx":-218,"dy":138.5,"t":32819},{"dx":-193,"dy":162.5,"t":32855},{"dx":-256,"dy":218.5,"t":32913},{"dx":-273,"dy":242.5,"t":32950},{"dx":-293,"dy":247.5,"t":33008},{"dx":-303,"dy":242.5,"t":33046},{"dx":-272,"dy":168.5,"t":33121},{"dx":-231,"dy":122.5,"t":33156},{"dx":-188,"dy":66.5,"t":33213},{"dx":-154,"dy":39.5,"t":33252},{"dx":-133,"dy":-9.5,"t":33310},{"dx":-122,"dy":-30.5,"t":33353},{"dx":-146,"dy":14.5,"t":33421},{"dx":-170,"dy":41.5,"t":33458},{"dx":-207,"dy":72.5,"t":33492}],[{"dx":66,"dy":59,"t":34516},{"dx":97,"dy":82,"t":34552},{"dx":118,"dy":141,"t":34609},{"dx":94,"dy":196,"t":34647},{"dx":144,"dy":220,"t":34704},{"dx":161,"dy":243,"t":34737},{"dx":215,"dy":227,"t":34813},{"dx":255,"dy":198,"t":34925},{"dx":254,"dy":194,"t":34980},{"dx":255,"dy":200,"t":35026},{"dx":313,"dy":224,"t":35083},{"dx":346,"dy":242,"t":35133},{"dx":333,"dy":316,"t":35189},{"dx":284,"dy":344,"t":35224},{"dx":238,"dy":391,"t":35280},{"dx":205,"dy":396,"t":35316},{"dx":180,"dy":336,"t":35378},{"dx":156,"dy":318,"t":35415},{"dx":168,"dy":248,"t":35477},{"dx":200,"dy":205,"t":35515},{"dx":92,"dy":165,"t":35574},{"dx":73,"dy":134,"t":35612},{"dx":94,"dy":133,"t":35671},{"dx":87,"dy":130,"t":35706},{"dx":140,"dy":141,"t":35766},{"dx":180,"dy":140,"t":35802},{"dx":137,"dy":186,"t":35863},{"dx":81,"dy":173,"t":35897},{"dx":41,"dy":114,"t":35957},{"dx":13,"dy":87,"t":35994},{"dx":-32,"dy":162,"t":36051},{"dx":-36,"dy":175,"t":36093},{"dx":-17,"dy":141,"t":36161},{"dx":-21,"dy":107,"t":36199},{"dx":-43,"dy":67,"t":36261},{"dx":-29,"dy":48,"t":36299},{"dx":25,"dy":106,"t":36359},{"dx":81,"dy":158,"t":36396},{"dx":46,"dy":149,"t":36455},{"dx":25,"dy":123,"t":36492},{"dx":16,"dy":98,"t":36528}],[{"dx":-78,"dy":-6,"t":37537},{"dx":-129,"dy":-31,"t":37594},{"dx":-149,"dy":-44,"t":37629},{"dx":-166,"dy":-64,"t":37688},{"dx":-168,"dy":-75,"t":37723},{"dx":-151,"dy":-63,"t":37784},{"dx":-147,"dy":-64,"t":37820},{"dx":-133,"dy":-34,"t":37884},{"dx":-120,"dy":-23,"t":37923},{"dx":-112,"dy":8,"t":37980},{"dx":-113,"dy":17,"t":38016},{"dx":-194,"dy":161,"t":38076},{"dx":-244,"dy":283,"t":38129},{"dx":-403,"dy":466,"t":38187},{"dx":-499,"dy":521,"t":38222},{"dx":-611,"dy":599,"t":38278},{"dx":-647,"dy":616,"t":38317},{"dx":-594,"dy":557,"t":38375},{"dx":-556,"dy":503,"t":38414},{"dx":-530,"dy":398,"t":38470},{"dx":-537,"dy":429,"t":38507},{"dx":-526,"dy":491,"t":38565},{"dx":-521,"dy":488,"t":38601},{"dx":-384,"dy":378,"t":38659},{"dx":-323,"dy":294,"t":38697},{"dx":-228,"dy":219,"t":38759},{"dx":-202,"dy":212,"t":38796},{"dx":-237,"dy":309,"t":38854},{"dx":-281,"dy":382,"t":38893},{"dx":-334,"dy":452,"t":38951},{"dx":-338,"dy":439,"t":38987},{"dx":-243,"dy":386,"t":39048},{"dx":-225,"dy":366,"t":39085},{"dx":-170,"dy":298,"t":39156},{"dx":-148,"dy":274,"t":39191},{"dx":-134,"dy":211,"t":39248},{"dx":-145,"dy":177,"t":39286},{"dx":-169,"dy":147,"t":39345},{"dx":-180,"dy":142,"t":39383},{"dx":-183,"dy":140,"t":39442},{"dx":-171,"dy":126,"t":39479}]],"percent_in_roi":[9.523809523809524,60.97560975609756,100,74.4186046511628,0,51.162790697674424,78.04878048780488,74.4186046511628,88.37209302325581,42.857142857142854,31.70731707317073,26.82926829268293,14.634146341463413],"average_offset":[{"x":365.3333333333333,"y":-199.85714285714286,"r":330.9830032114296},{"x":0.34146341463414637,"y":86.01219512195122,"r":89.24391577066805},{"x":64.25581395348837,"y":-30.674418604651162,"r":37.4862368830442},{"x":41.86046511627907,"y":113.0813953488372,"r":75.67992147056734},{"x":-236.73170731707316,"y":-11.707317073170731,"r":43.480711567380204},{"x":72.51162790697674,"y":132.95348837209303,"r":50.11854524634089},{"x":-86.51219512195122,"y":9.268292682926829,"r":70.64644145787048},{"x":-14.44186046511628,"y":91.75581395348837,"r":85.00673151215534},{"x":-31.11627906976744,"y":36.48837209302326,"r":66.11984137512844},{"x":-102.54761904761905,"y":185.28571428571428,"r":243.47255499796967},{"x":-184,"y":65.64634146341463,"r":67.28350612380213},{"x":122.8048780487805,"y":183.34146341463415,"r":124.68959913823613},{"x":-278.609756097561,"y":245.97560975609755,"r":252.7521811583618}],"samples_per_sec":"20.26","clicks":25,"pattern":"spread","trial_type":"webgazer-validate","trial_index":31,"time_elapsed":256427,"internal_node_id":"0.0-10.0-3.3","validation_points":[[15,85],[37.5,62.5],[25,75],[37.5,37.5],[85,85],[15,15],[75,75],[62.5,37.5],[50,50],[75,25],[62.5,62.5],[25,25],[85,15]],"user_agent":"Mozilla/5.0 (Macintosh; Intel Mac OS X 11_2_0) AppleWebKit/537.36 (KHTML, like Gecko) Chrome/88.0.4324.150 Safari/537.36","screen_width_px":1440,"screen_height_px":900},{"rt":1432.9999999608845,"stimulus":"\n      <p>Round complete.</p>\n      <p>You can move a little bit, but please try to return you head to the same general location before continuing.</p>\n    ","response":0,"trial_type":"html-button-response","trial_index":32,"time_elapsed":257862,"internal_node_id":"0.0-10.0-4.3","user_agent":"Mozilla/5.0 (Macintosh; Intel Mac OS X 11_2_0) AppleWebKit/537.36 (KHTML, like Gecko) Chrome/88.0.4324.150 Safari/537.36","screen_width_px":1440,"screen_height_px":900},{"trial_type":"webgazer-init-camera","trial_index":33,"time_elapsed":259414,"internal_node_id":"0.0-10.0-5.3","user_agent":"Mozilla/5.0 (Macintosh; Intel Mac OS X 11_2_0) AppleWebKit/537.36 (KHTML, like Gecko) Chrome/88.0.4324.150 Safari/537.36","screen_width_px":1440,"screen_height_px":900},{"rt":902.5299999630079,"stimulus":"\n      <p>Calibration phase next.</p>\n      <p>Click on the dots.</p>\n    ","response":0,"trial_type":"html-button-response","trial_index":34,"time_elapsed":260317,"internal_node_id":"0.0-10.0-0.4","user_agent":"Mozilla/5.0 (Macintosh; Intel Mac OS X 11_2_0) AppleWebKit/537.36 (KHTML, like Gecko) Chrome/88.0.4324.150 Safari/537.36","screen_width_px":1440,"screen_height_px":900},{"trial_type":"webgazer-calibrate","trial_index":35,"time_elapsed":274557,"internal_node_id":"0.0-10.0-1.4","user_agent":"Mozilla/5.0 (Macintosh; Intel Mac OS X 11_2_0) AppleWebKit/537.36 (KHTML, like Gecko) Chrome/88.0.4324.150 Safari/537.36","screen_width_px":1440,"screen_height_px":900},{"rt":721.72499995213,"stimulus":"\n      <p>Validation phase next.</p>\n      <p>Look at the dots.</p>\n    ","response":0,"trial_type":"html-button-response","trial_index":36,"time_elapsed":275280,"internal_node_id":"0.0-10.0-2.4","user_agent":"Mozilla/5.0 (Macintosh; Intel Mac OS X 11_2_0) AppleWebKit/537.36 (KHTML, like Gecko) Chrome/88.0.4324.150 Safari/537.36","screen_width_px":1440,"screen_height_px":900},{"raw_gaze":[[{"dx":69,"dy":165,"t":1097},{"dx":67,"dy":168,"t":1131},{"dx":36,"dy":127,"t":1188},{"dx":12,"dy":90,"t":1225},{"dx":-74,"dy":70,"t":1284},{"dx":-112,"dy":79,"t":1321},{"dx":-134,"dy":100,"t":1379},{"dx":-121,"dy":107,"t":1416},{"dx":-93,"dy":117,"t":1475},{"dx":-68,"dy":115,"t":1512},{"dx":-42,"dy":125,"t":1568},{"dx":-21,"dy":123,"t":1603},{"dx":10,"dy":136,"t":1662},{"dx":7,"dy":140,"t":1698},{"dx":20,"dy":133,"t":1767},{"dx":23,"dy":136,"t":1801},{"dx":12,"dy":118,"t":1858},{"dx":-1,"dy":101,"t":1896},{"dx":0,"dy":81,"t":1960},{"dx":6,"dy":73,"t":1998},{"dx":17,"dy":60,"t":2059},{"dx":23,"dy":57,"t":2096},{"dx":16,"dy":60,"t":2154},{"dx":13,"dy":67,"t":2190},{"dx":17,"dy":94,"t":2253},{"dx":5,"dy":100,"t":2290},{"dx":-48,"dy":117,"t":2347},{"dx":-75,"dy":121,"t":2382},{"dx":-40,"dy":107,"t":2440},{"dx":-15,"dy":106,"t":2477},{"dx":14,"dy":94,"t":2537},{"dx":20,"dy":97,"t":2576},{"dx":38,"dy":102,"t":2638},{"dx":36,"dy":103,"t":2678},{"dx":18,"dy":95,"t":2737},{"dx":7,"dy":90,"t":2791},{"dx":-6,"dy":90,"t":2854},{"dx":-16,"dy":94,"t":2890},{"dx":-20,"dy":108,"t":2949},{"dx":-18,"dy":114,"t":2985},{"dx":-12,"dy":113,"t":3043},{"dx":-4,"dy":109,"t":3082},{"dx":-9,"dy":98,"t":3122}],[{"dx":-77,"dy":-25,"t":4103},{"dx":-50,"dy":-24,"t":4170},{"dx":-32,"dy":-31,"t":4206},{"dx":24,"dy":-13,"t":4263},{"dx":41,"dy":-9,"t":4298},{"dx":69,"dy":-4,"t":4358},{"dx":79,"dy":-2,"t":4392},{"dx":99,"dy":0,"t":4453},{"dx":114,"dy":11,"t":4487},{"dx":100,"dy":17,"t":4543},{"dx":98,"dy":10,"t":4580},{"dx":101,"dy":16,"t":4638},{"dx":104,"dy":18,"t":4670},{"dx":97,"dy":15,"t":4728},{"dx":104,"dy":24,"t":4780},{"dx":110,"dy":29,"t":4843},{"dx":110,"dy":26,"t":4881},{"dx":118,"dy":17,"t":4938},{"dx":116,"dy":15,"t":4973},{"dx":110,"dy":18,"t":5029},{"dx":106,"dy":23,"t":5069},{"dx":110,"dy":21,"t":5124},{"dx":116,"dy":16,"t":5163},{"dx":99,"dy":3,"t":5221},{"dx":68,"dy":-8,"t":5259},{"dx":116,"dy":2,"t":5313},{"dx":181,"dy":18,"t":5349},{"dx":359,"dy":30,"t":5411},{"dx":452,"dy":26,"t":5446},{"dx":500,"dy":56,"t":5505},{"dx":494,"dy":85,"t":5542},{"dx":412,"dy":106,"t":5600},{"dx":368,"dy":124,"t":5634},{"dx":260,"dy":130,"t":5692},{"dx":220,"dy":128,"t":5728},{"dx":134,"dy":127,"t":5798},{"dx":94,"dy":121,"t":5834},{"dx":54,"dy":105,"t":5892},{"dx":50,"dy":96,"t":5937},{"dx":36,"dy":81,"t":5993},{"dx":28,"dy":75,"t":6033},{"dx":2,"dy":67,"t":6094},{"dx":-14,"dy":65,"t":6133},{"dx":-20,"dy":55,"t":6172}],[{"dx":90,"dy":8,"t":7161},{"dx":97,"dy":-10,"t":7257},{"dx":94,"dy":-20,"t":7293},{"dx":98,"dy":-25,"t":7362},{"dx":104,"dy":-23,"t":7463},{"dx":121,"dy":-18,"t":7526},{"dx":142,"dy":-19,"t":7566},{"dx":153,"dy":-16,"t":7622},{"dx":157,"dy":-14,"t":7657},{"dx":135,"dy":-10,"t":7712},{"dx":116,"dy":-2,"t":7762},{"dx":117,"dy":-9,"t":7821},{"dx":123,"dy":-27,"t":7856},{"dx":129,"dy":-51,"t":7911},{"dx":129,"dy":-59,"t":7947},{"dx":157,"dy":-46,"t":8004},{"dx":156,"dy":-51,"t":8040},{"dx":186,"dy":-22,"t":8101},{"dx":192,"dy":-11,"t":8138},{"dx":214,"dy":22,"t":8197},{"dx":220,"dy":37,"t":8231},{"dx":234,"dy":42,"t":8290},{"dx":244,"dy":38,"t":8328},{"dx":210,"dy":24,"t":8387},{"dx":187,"dy":20,"t":8423},{"dx":141,"dy":-4,"t":8482},{"dx":119,"dy":-13,"t":8518},{"dx":96,"dy":-21,"t":8577},{"dx":92,"dy":-21,"t":8611},{"dx":93,"dy":-27,"t":8667},{"dx":95,"dy":-33,"t":8703},{"dx":91,"dy":-27,"t":8779},{"dx":85,"dy":-18,"t":8813},{"dx":83,"dy":-2,"t":8871},{"dx":82,"dy":4,"t":8906},{"dx":87,"dy":3,"t":8966},{"dx":92,"dy":6,"t":9003},{"dx":95,"dy":5,"t":9066},{"dx":93,"dy":2,"t":9103},{"dx":85,"dy":0,"t":9175},{"dx":77,"dy":4,"t":9189}],[{"dx":-33,"dy":184,"t":10200},{"dx":-37,"dy":188,"t":10235},{"dx":-53,"dy":191,"t":10293},{"dx":-62,"dy":191,"t":10330},{"dx":-65,"dy":188,"t":10388},{"dx":-60,"dy":187,"t":10423},{"dx":-79,"dy":190,"t":10481},{"dx":-99,"dy":194,"t":10514},{"dx":-112,"dy":202,"t":10569},{"dx":-108,"dy":206,"t":10606},{"dx":-108,"dy":209,"t":10666},{"dx":-111,"dy":209,"t":10701},{"dx":-88,"dy":200,"t":10775},{"dx":-72,"dy":193,"t":10808},{"dx":-83,"dy":191,"t":10871},{"dx":-93,"dy":194,"t":10906},{"dx":-71,"dy":203,"t":10967},{"dx":-56,"dy":206,"t":11008},{"dx":-40,"dy":209,"t":11070},{"dx":-39,"dy":210,"t":11107},{"dx":-50,"dy":218,"t":11165},{"dx":-55,"dy":214,"t":11204},{"dx":-84,"dy":229,"t":11258},{"dx":-73,"dy":222,"t":11293},{"dx":-70,"dy":228,"t":11350},{"dx":-71,"dy":226,"t":11387},{"dx":3,"dy":261,"t":11443},{"dx":58,"dy":285,"t":11478},{"dx":140,"dy":311,"t":11533},{"dx":183,"dy":308,"t":11568},{"dx":212,"dy":333,"t":11624},{"dx":204,"dy":345,"t":11660},{"dx":149,"dy":341,"t":11721},{"dx":113,"dy":343,"t":11777},{"dx":42,"dy":337,"t":11837},{"dx":7,"dy":320,"t":11875},{"dx":-8,"dy":299,"t":11935},{"dx":-14,"dy":285,"t":11974},{"dx":-70,"dy":236,"t":12032},{"dx":-102,"dy":217,"t":12075},{"dx":-111,"dy":207,"t":12138},{"dx":-113,"dy":208,"t":12178},{"dx":-107,"dy":213,"t":12212}],[{"dx":319,"dy":179.5,"t":13228},{"dx":361,"dy":212.5,"t":13285},{"dx":360,"dy":223.5,"t":13324},{"dx":316,"dy":238.5,"t":13383},{"dx":293,"dy":241.5,"t":13421},{"dx":223,"dy":252.5,"t":13476},{"dx":178,"dy":253.5,"t":13510},{"dx":115,"dy":234.5,"t":13567},{"dx":108,"dy":222.5,"t":13602},{"dx":107,"dy":209.5,"t":13659},{"dx":111,"dy":200.5,"t":13694},{"dx":92,"dy":206.5,"t":13772},{"dx":89,"dy":210.5,"t":13807},{"dx":97,"dy":225.5,"t":13868},{"dx":106,"dy":232.5,"t":13906},{"dx":135,"dy":247.5,"t":13967},{"dx":153,"dy":251.5,"t":14003},{"dx":187,"dy":234.5,"t":14064},{"dx":206,"dy":222.5,"t":14102},{"dx":187,"dy":214.5,"t":14161},{"dx":180,"dy":218.5,"t":14197},{"dx":168,"dy":236.5,"t":14254},{"dx":165,"dy":247.5,"t":14289},{"dx":161,"dy":264.5,"t":14344},{"dx":153,"dy":272.5,"t":14379},{"dx":76,"dy":242.5,"t":14437},{"dx":26,"dy":228.5,"t":14475},{"dx":-10,"dy":198.5,"t":14531},{"dx":-6,"dy":192.5,"t":14568},{"dx":-43,"dy":177.5,"t":14627},{"dx":-68,"dy":170.5,"t":14664},{"dx":-63,"dy":161.5,"t":14720},{"dx":-48,"dy":161.5,"t":14781},{"dx":25,"dy":154.5,"t":14842},{"dx":59,"dy":144.5,"t":14882},{"dx":75,"dy":129.5,"t":14941},{"dx":94,"dy":130.5,"t":14981},{"dx":124,"dy":125.5,"t":15118},{"dx":106,"dy":123.5,"t":15157},{"dx":123,"dy":137.5,"t":15217},{"dx":128,"dy":155.5,"t":15236}],[{"dx":53,"dy":260.5,"t":16228},{"dx":59,"dy":276.5,"t":16287},{"dx":68,"dy":290.5,"t":16324},{"dx":74,"dy":306.5,"t":16380},{"dx":76,"dy":316.5,"t":16414},{"dx":51,"dy":303.5,"t":16470},{"dx":33,"dy":297.5,"t":16505},{"dx":60,"dy":270.5,"t":16560},{"dx":63,"dy":256.5,"t":16597},{"dx":45,"dy":229.5,"t":16660},{"dx":32,"dy":216.5,"t":16703},{"dx":16,"dy":204.5,"t":16776},{"dx":12,"dy":189.5,"t":16810},{"dx":23,"dy":199.5,"t":16868},{"dx":9,"dy":194.5,"t":16902},{"dx":33,"dy":230.5,"t":16959},{"dx":22,"dy":237.5,"t":16994},{"dx":37,"dy":250.5,"t":17051},{"dx":39,"dy":253.5,"t":17086},{"dx":60,"dy":264.5,"t":17142},{"dx":76,"dy":273.5,"t":17179},{"dx":95,"dy":280.5,"t":17236},{"dx":84,"dy":284.5,"t":17275},{"dx":68,"dy":292.5,"t":17337},{"dx":66,"dy":300.5,"t":17378},{"dx":67,"dy":302.5,"t":17435},{"dx":68,"dy":296.5,"t":17471},{"dx":68,"dy":301.5,"t":17528},{"dx":67,"dy":309.5,"t":17564},{"dx":60,"dy":319.5,"t":17621},{"dx":49,"dy":310.5,"t":17656},{"dx":41,"dy":286.5,"t":17715},{"dx":46,"dy":275.5,"t":17761},{"dx":14,"dy":242.5,"t":17821},{"dx":-6,"dy":225.5,"t":17859},{"dx":-16,"dy":198.5,"t":17915},{"dx":-6,"dy":188.5,"t":17948},{"dx":4,"dy":181.5,"t":18002},{"dx":3,"dy":184.5,"t":18039},{"dx":-2,"dy":199.5,"t":18096},{"dx":-6,"dy":210.5,"t":18131},{"dx":-19,"dy":218.5,"t":18196},{"dx":-23,"dy":222.5,"t":18239},{"dx":-14,"dy":217.5,"t":18278}],[{"dx":86,"dy":139,"t":19296},{"dx":88,"dy":143,"t":19331},{"dx":80,"dy":138,"t":19389},{"dx":72,"dy":129,"t":19427},{"dx":62,"dy":120,"t":19485},{"dx":66,"dy":118,"t":19519},{"dx":56,"dy":140,"t":19576},{"dx":49,"dy":148,"t":19610},{"dx":39,"dy":146,"t":19668},{"dx":35,"dy":138,"t":19702},{"dx":31,"dy":137,"t":19773},{"dx":30,"dy":141,"t":19809},{"dx":28,"dy":150,"t":19868},{"dx":30,"dy":132,"t":19904},{"dx":25,"dy":134,"t":19962},{"dx":21,"dy":131,"t":19999},{"dx":33,"dy":157,"t":20073},{"dx":34,"dy":155,"t":20114},{"dx":39,"dy":158,"t":20171},{"dx":62,"dy":147,"t":20207},{"dx":63,"dy":126,"t":20263},{"dx":58,"dy":111,"t":20306},{"dx":21,"dy":113,"t":20361},{"dx":11,"dy":112,"t":20398},{"dx":-4,"dy":135,"t":20469},{"dx":2,"dy":145,"t":20516},{"dx":3,"dy":164,"t":20569},{"dx":1,"dy":170,"t":20603},{"dx":11,"dy":150,"t":20663},{"dx":17,"dy":142,"t":20700},{"dx":11,"dy":146,"t":20787},{"dx":8,"dy":149,"t":20819},{"dx":-14,"dy":137,"t":20878},{"dx":-20,"dy":149,"t":20915},{"dx":-35,"dy":159,"t":20971},{"dx":-43,"dy":158,"t":21008},{"dx":-50,"dy":162,"t":21063},{"dx":-58,"dy":166,"t":21099},{"dx":-51,"dy":164,"t":21158},{"dx":-39,"dy":159,"t":21193},{"dx":-10,"dy":149,"t":21252},{"dx":6,"dy":144,"t":21287},{"dx":-3,"dy":151,"t":21320}],[{"dx":-234,"dy":108,"t":22365},{"dx":-228,"dy":105,"t":22525},{"dx":-223,"dy":102,"t":22561},{"dx":-216,"dy":100,"t":22633},{"dx":-215,"dy":93,"t":22667},{"dx":-220,"dy":78,"t":22723},{"dx":-221,"dy":78,"t":22780},{"dx":-225,"dy":77,"t":22839},{"dx":-229,"dy":74,"t":22907},{"dx":-225,"dy":73,"t":23039},{"dx":-215,"dy":69,"t":23116},{"dx":-204,"dy":84,"t":23218},{"dx":-210,"dy":88,"t":23262},{"dx":-211,"dy":85,"t":23336},{"dx":-210,"dy":81,"t":23372},{"dx":-232,"dy":106,"t":23444},{"dx":-244,"dy":111,"t":23491},{"dx":-259,"dy":123,"t":23550},{"dx":-264,"dy":130,"t":23586},{"dx":-262,"dy":141,"t":23642},{"dx":-256,"dy":145,"t":23680},{"dx":-266,"dy":149,"t":23783},{"dx":-254,"dy":154,"t":23836},{"dx":-221,"dy":164,"t":23930},{"dx":-222,"dy":159,"t":23977},{"dx":-228,"dy":141,"t":24038},{"dx":-232,"dy":132,"t":24074},{"dx":-251,"dy":119,"t":24132},{"dx":-256,"dy":117,"t":24170},{"dx":-237,"dy":109,"t":24231},{"dx":-234,"dy":103,"t":24267},{"dx":-254,"dy":82,"t":24329},{"dx":-266,"dy":73,"t":24345}],[{"dx":195,"dy":315,"t":25363},{"dx":217,"dy":323,"t":25399},{"dx":223,"dy":293,"t":25458},{"dx":225,"dy":275,"t":25494},{"dx":208,"dy":256,"t":25551},{"dx":199,"dy":249,"t":25588},{"dx":176,"dy":207,"t":25645},{"dx":163,"dy":197,"t":25683},{"dx":214,"dy":247,"t":25755},{"dx":251,"dy":286,"t":25797},{"dx":358,"dy":368,"t":25862},{"dx":416,"dy":409,"t":25897},{"dx":425,"dy":448,"t":25960},{"dx":389,"dy":444,"t":25996},{"dx":304,"dy":414,"t":26064},{"dx":301,"dy":397,"t":26115},{"dx":283,"dy":353,"t":26171},{"dx":282,"dy":338,"t":26207},{"dx":252,"dy":245,"t":26267},{"dx":252,"dy":203,"t":26303},{"dx":252,"dy":159,"t":26365},{"dx":240,"dy":124,"t":26403},{"dx":227,"dy":95,"t":26460},{"dx":202,"dy":72,"t":26497},{"dx":199,"dy":69,"t":26555},{"dx":198,"dy":70,"t":26589},{"dx":215,"dy":101,"t":26645},{"dx":231,"dy":126,"t":26683},{"dx":169,"dy":121,"t":26742},{"dx":151,"dy":122,"t":26800},{"dx":92,"dy":115,"t":26859},{"dx":56,"dy":109,"t":26893},{"dx":48,"dy":124,"t":26950},{"dx":69,"dy":141,"t":26985},{"dx":126,"dy":137,"t":27044},{"dx":149,"dy":133,"t":27083},{"dx":153,"dy":137,"t":27143},{"dx":137,"dy":120,"t":27181},{"dx":172,"dy":140,"t":27241},{"dx":191,"dy":141,"t":27281},{"dx":198,"dy":134,"t":27341},{"dx":193,"dy":132,"t":27363}],[{"dx":-12,"dy":238.5,"t":28351},{"dx":-38,"dy":202.5,"t":28444},{"dx":-53,"dy":185.5,"t":28483},{"dx":-86,"dy":161.5,"t":28539},{"dx":-81,"dy":156.5,"t":28575},{"dx":-96,"dy":152.5,"t":28635},{"dx":-96,"dy":149.5,"t":28669},{"dx":-86,"dy":159.5,"t":28728},{"dx":-80,"dy":167.5,"t":28784},{"dx":-83,"dy":180.5,"t":28845},{"dx":-90,"dy":184.5,"t":28884},{"dx":-111,"dy":177.5,"t":28943},{"dx":-124,"dy":168.5,"t":28982},{"dx":-125,"dy":150.5,"t":29040},{"dx":-117,"dy":142.5,"t":29078},{"dx":-40,"dy":128.5,"t":29135},{"dx":18,"dy":123.5,"t":29169},{"dx":14,"dy":123.5,"t":29228},{"dx":10,"dy":127.5,"t":29267},{"dx":-2,"dy":131.5,"t":29323},{"dx":-10,"dy":134.5,"t":29357},{"dx":6,"dy":133.5,"t":29506},{"dx":-2,"dy":130.5,"t":29543},{"dx":10,"dy":151.5,"t":29604},{"dx":13,"dy":160.5,"t":29639},{"dx":3,"dy":171.5,"t":29695},{"dx":-8,"dy":174.5,"t":29733},{"dx":-7,"dy":167.5,"t":29801},{"dx":26,"dy":175.5,"t":29838},{"dx":37,"dy":178.5,"t":29897},{"dx":27,"dy":175.5,"t":29932},{"dx":21,"dy":174.5,"t":29990},{"dx":25,"dy":171.5,"t":30025},{"dx":59,"dy":146.5,"t":30081},{"dx":88,"dy":131.5,"t":30118},{"dx":69,"dy":126.5,"t":30179},{"dx":67,"dy":130.5,"t":30218},{"dx":61,"dy":126.5,"t":30279},{"dx":50,"dy":121.5,"t":30317},{"dx":29,"dy":122.5,"t":30377},{"dx":22,"dy":121.5,"t":30394}],[{"dx":146,"dy":-90,"t":31429},{"dx":171,"dy":-88,"t":31541},{"dx":178,"dy":-84,"t":31600},{"dx":182,"dy":-81,"t":31671},{"dx":180,"dy":-84,"t":31707},{"dx":201,"dy":-29,"t":31777},{"dx":233,"dy":18,"t":31812},{"dx":250,"dy":155,"t":31870},{"dx":275,"dy":222,"t":31907},{"dx":307,"dy":318,"t":32020},{"dx":292,"dy":327,"t":32067},{"dx":256,"dy":311,"t":32127},{"dx":246,"dy":284,"t":32161},{"dx":201,"dy":203,"t":32219},{"dx":185,"dy":178,"t":32335},{"dx":159,"dy":119,"t":32443},{"dx":145,"dy":95,"t":32484},{"dx":142,"dy":28,"t":32544},{"dx":126,"dy":0,"t":32580},{"dx":84,"dy":-13,"t":32636},{"dx":76,"dy":-19,"t":32678},{"dx":60,"dy":-24,"t":32744},{"dx":73,"dy":-6,"t":32795},{"dx":121,"dy":11,"t":32850},{"dx":136,"dy":17,"t":32886},{"dx":132,"dy":21,"t":32939},{"dx":137,"dy":25,"t":32976},{"dx":102,"dy":26,"t":33035},{"dx":81,"dy":22,"t":33129},{"dx":81,"dy":33,"t":33207},{"dx":96,"dy":42,"t":33243},{"dx":119,"dy":75,"t":33305},{"dx":125,"dy":82,"t":33343},{"dx":151,"dy":91,"t":33408},{"dx":165,"dy":93,"t":33422}],[{"dx":63,"dy":391.5,"t":34452},{"dx":33,"dy":431.5,"t":34512},{"dx":1,"dy":444.5,"t":34548},{"dx":-23,"dy":437.5,"t":34609},{"dx":-34,"dy":426.5,"t":34644},{"dx":-35,"dy":383.5,"t":34706},{"dx":-32,"dy":355.5,"t":34742},{"dx":-17,"dy":289.5,"t":34809},{"dx":-5,"dy":253.5,"t":34849},{"dx":-4,"dy":191.5,"t":34907},{"dx":-13,"dy":165.5,"t":34942},{"dx":-35,"dy":174.5,"t":35004},{"dx":-44,"dy":185.5,"t":35038},{"dx":-69,"dy":176.5,"t":35094},{"dx":-78,"dy":178.5,"t":35129},{"dx":-7,"dy":136.5,"t":35186},{"dx":18,"dy":123.5,"t"