[{"rt":2339.9999999999995,"stimulus":"\n      <p>You can elect whether to include your data in our research dataset.</p>\n    ","response":0,"question":"consent","trial_type":"html-button-response","trial_index":0,"time_elapsed":2345,"internal_node_id":"0.0-0.0","user_agent":"Mozilla/5.0 (Macintosh; Intel Mac OS X 10_15_7) AppleWebKit/605.1.15 (KHTML, like Gecko) Version/14.0.3 Safari/605.1.15","screen_width_px":1440,"screen_height_px":900},{"rt":947.0000000000005,"stimulus":"\n      <p>This experiment uses your camera for eye tracking.</p>\n      <p>No video is saved from this experiment. The only data recorded are predictions about where you are looking.</p>\n      <p>Before we begin, there are a few things to do that can improve the accuracy of the eye tracking.</p>\n    ","response":0,"trial_type":"html-button-response","trial_index":1,"time_elapsed":3295,"internal_node_id":"0.0-1.0","user_agent":"Mozilla/5.0 (Macintosh; Intel Mac OS X 10_15_7) AppleWebKit/605.1.15 (KHTML, like Gecko) Version/14.0.3 Safari/605.1.15","screen_width_px":1440,"screen_height_px":900},{"rt":1121.000000000001,"stimulus":"\n      <p>If you wear glasses and can complete the task without them, please remove your glasses.</p>\n    ","response":0,"trial_type":"html-button-response","trial_index":2,"time_elapsed":4419,"internal_node_id":"0.0-2.0","user_agent":"Mozilla/5.0 (Macintosh; Intel Mac OS X 10_15_7) AppleWebKit/605.1.15 (KHTML, like Gecko) Version/14.0.3 Safari/605.1.15","screen_width_px":1440,"screen_height_px":900},{"rt":5068,"stimulus":"\n      <p>Please close additional browser tabs and apps running in the background.<br>The eye tracker works best when there are fewer things running at the same time.</p>\n    ","response":0,"trial_type":"html-button-response","trial_index":3,"time_elapsed":9489,"internal_node_id":"0.0-3.0","user_agent":"Mozilla/5.0 (Macintosh; Intel Mac OS X 10_15_7) AppleWebKit/605.1.15 (KHTML, like Gecko) Version/14.0.3 Safari/605.1.15","screen_width_px":1440,"screen_height_px":900},{"rt":9026,"stimulus":"\n      <p>Try to avoid bright lights behind you.<br>The eye tracker works best if your face is well lit from the front.<br>If you can, adjust the lighting in your room.</p>\n    ","response":0,"trial_type":"html-button-response","trial_index":4,"time_elapsed":18516,"internal_node_id":"0.0-4.0","user_agent":"Mozilla/5.0 (Macintosh; Intel Mac OS X 10_15_7) AppleWebKit/605.1.15 (KHTML, like Gecko) Version/14.0.3 Safari/605.1.15","screen_width_px":1440,"screen_height_px":900},{"rt":765.0000000000036,"stimulus":"\n      <p>In order to participate you must allow the experiment to use your camera.</p>\n      <p>You will be prompted to do this on the next screen.</p>\n    ","response":0,"trial_type":"html-button-response","trial_index":5,"time_elapsed":19283,"internal_node_id":"0.0-5.0","user_agent":"Mozilla/5.0 (Macintosh; Intel Mac OS X 10_15_7) AppleWebKit/605.1.15 (KHTML, like Gecko) Version/14.0.3 Safari/605.1.15","screen_width_px":1440,"screen_height_px":900},{"trial_type":"webgazer-init-camera","trial_index":6,"time_elapsed":48533,"internal_node_id":"0.0-6.0","user_agent":"Mozilla/5.0 (Macintosh; Intel Mac OS X 10_15_7) AppleWebKit/605.1.15 (KHTML, like Gecko) Version/14.0.3 Safari/605.1.15","screen_width_px":1440,"screen_height_px":900},{"rt":1214.0000000000073,"stimulus":"\n      <p>Now you'll complete a series of calibrations and validations.</p>\n      <p>The calibration will be reset after each round, so it is OK to move a little bit<br>in between the end of a validation and the start of the next calibration.</p>\n      <p>Please keep your head still during each round.</p>\n    ","response":0,"trial_type":"html-button-response","trial_index":7,"time_elapsed":49750,"internal_node_id":"0.0-7.0","user_agent":"Mozilla/5.0 (Macintosh; Intel Mac OS X 10_15_7) AppleWebKit/605.1.15 (KHTML, like Gecko) Version/14.0.3 Safari/605.1.15","screen_width_px":1440,"screen_height_px":900},{"success":true,"trial_type":"fullscreen","trial_index":8,"time_elapsed":52395,"internal_node_id":"0.0-8.0","user_agent":"Mozilla/5.0 (Macintosh; Intel Mac OS X 10_15_7) AppleWebKit/605.1.15 (KHTML, like Gecko) Version/14.0.3 Safari/605.1.15","screen_width_px":1440,"screen_height_px":900},{"rt":1272,"stimulus":"\n      <p>During the calibration phase, please look at each dot and click on it.</p>\n      <p>During the validation phase, just look at each dot while it is on the screen.</p>\n    ","response":0,"trial_type":"html-button-response","trial_index":9,"time_elapsed":53668,"internal_node_id":"0.0-9.0","user_agent":"Mozilla/5.0 (Macintosh; Intel Mac OS X 10_15_7) AppleWebKit/605.1.15 (KHTML, like Gecko) Version/14.0.3 Safari/605.1.15","screen_width_px":1440,"screen_height_px":900},{"rt":1567,"stimulus":"\n      <p>Calibration phase next.</p>\n      <p>Click on the dots.</p>\n    ","response":0,"trial_type":"html-button-response","trial_index":10,"time_elapsed":55236,"internal_node_id":"0.0-10.0-0.0","user_agent":"Mozilla/5.0 (Macintosh; Intel Mac OS X 10_15_7) AppleWebKit/605.1.15 (KHTML, like Gecko) Version/14.0.3 Safari/605.1.15","screen_width_px":1440,"screen_height_px":900},{"trial_type":"webgazer-calibrate","trial_index":11,"time_elapsed":79842,"internal_node_id":"0.0-10.0-1.0","user_agent":"Mozilla/5.0 (Macintosh; Intel Mac OS X 10_15_7) AppleWebKit/605.1.15 (KHTML, like Gecko) Version/14.0.3 Safari/605.1.15","screen_width_px":1440,"screen_height_px":900},{"rt":897,"stimulus":"\n      <p>Validation phase next.</p>\n      <p>Look at the dots.</p>\n    ","response":0,"trial_type":"html-button-response","trial_index":12,"time_elapsed":80740,"internal_node_id":"0.0-10.0-2.0","user_agent":"Mozilla/5.0 (Macintosh; Intel Mac OS X 10_15_7) AppleWebKit/605.1.15 (KHTML, like Gecko) Version/14.0.3 Safari/605.1.15","screen_width_px":1440,"screen_height_px":900},{"raw_gaze":[[{"dx":-466,"dy":335,"t":1086},{"dx":-471,"dy":332,"t":1190},{"dx":-475,"dy":330,"t":1297},{"dx":-478,"dy":328,"t":1406},{"dx":-480,"dy":327,"t":1514},{"dx":-481,"dy":326,"t":1621},{"dx":-482,"dy":326,"t":1732},{"dx":-482,"dy":325,"t":1841},{"dx":-482,"dy":325,"t":1947},{"dx":-482,"dy":325,"t":2057},{"dx":-482,"dy":326,"t":2162},{"dx":-482,"dy":326,"t":2263},{"dx":-481,"dy":326,"t":2369},{"dx":-481,"dy":326,"t":2475},{"dx":-481,"dy":326,"t":2581},{"dx":-481,"dy":326,"t":2688},{"dx":-481,"dy":326,"t":2800},{"dx":-481,"dy":326,"t":2908},{"dx":-481,"dy":326,"t":3012},{"dx":-481,"dy":326,"t":3129}],[{"dx":-337,"dy":236,"t":4188},{"dx":-337,"dy":236,"t":4300},{"dx":-337,"dy":236,"t":4410},{"dx":-337,"dy":236,"t":4525},{"dx":-337,"dy":236,"t":4630},{"dx":-337,"dy":236,"t":4735},{"dx":-337,"dy":236,"t":4845},{"dx":-337,"dy":236,"t":4949},{"dx":-337,"dy":236,"t":5055},{"dx":-337,"dy":236,"t":5167},{"dx":-337,"dy":236,"t":5273},{"dx":-337,"dy":236,"t":5380},{"dx":-337,"dy":236,"t":5495},{"dx":-337,"dy":236,"t":5602},{"dx":-337,"dy":236,"t":5708},{"dx":-337,"dy":236,"t":5819},{"dx":-337,"dy":236,"t":5928},{"dx":-337,"dy":236,"t":6036},{"dx":-337,"dy":236,"t":6145}],[{"dx":-337,"dy":-214,"t":7152},{"dx":-337,"dy":-214,"t":7257},{"dx":-337,"dy":-214,"t":7367},{"dx":-337,"dy":-214,"t":7475},{"dx":-337,"dy":-214,"t":7582},{"dx":-337,"dy":-214,"t":7691},{"dx":-337,"dy":-214,"t":7802},{"dx":-337,"dy":-214,"t":7913},{"dx":-337,"dy":-214,"t":8021},{"dx":-337,"dy":-214,"t":8128},{"dx":-337,"dy":-214,"t":8240},{"dx":-337,"dy":-214,"t":8346},{"dx":-337,"dy":-214,"t":8452},{"dx":-337,"dy":-214,"t":8566},{"dx":-337,"dy":-214,"t":8673},{"dx":-337,"dy":-214,"t":8780},{"dx":-337,"dy":-214,"t":8888},{"dx":-337,"dy":-214,"t":8999},{"dx":-337,"dy":-214,"t":9107},{"dx":-337,"dy":-214,"t":9220}],[{"dx":203,"dy":123.5,"t":10272},{"dx":203,"dy":123.5,"t":10379},{"dx":203,"dy":123.5,"t":10483},{"dx":203,"dy":123.5,"t":10597},{"dx":203,"dy":123.5,"t":10705},{"dx":203,"dy":123.5,"t":10811},{"dx":203,"dy":123.5,"t":10921},{"dx":203,"dy":123.5,"t":11028},{"dx":203,"dy":123.5,"t":11134},{"dx":203,"dy":123.5,"t":11243},{"dx":203,"dy":123.5,"t":11348},{"dx":203,"dy":123.5,"t":11453},{"dx":203,"dy":123.5,"t":11565},{"dx":203,"dy":123.5,"t":11674},{"dx":203,"dy":123.5,"t":11778},{"dx":203,"dy":123.5,"t":11888},{"dx":203,"dy":123.5,"t":11998},{"dx":203,"dy":123.5,"t":12106},{"dx":203,"dy":123.5,"t":12214},{"dx":203,"dy":123.5,"t":12322}],[{"dx":527,"dy":326,"t":13343},{"dx":527,"dy":326,"t":13447},{"dx":527,"dy":326,"t":13564},{"dx":527,"dy":326,"t":13673},{"dx":527,"dy":326,"t":13780},{"dx":527,"dy":326,"t":13890},{"dx":527,"dy":326,"t":13999},{"dx":527,"dy":326,"t":14104},{"dx":527,"dy":326,"t":14217},{"dx":527,"dy":326,"t":14324},{"dx":527,"dy":326,"t":14433},{"dx":527,"dy":326,"t":14545},{"dx":527,"dy":326,"t":14654},{"dx":527,"dy":326,"t":14764},{"dx":527,"dy":326,"t":14876},{"dx":527,"dy":326,"t":14981},{"dx":527,"dy":326,"t":15088},{"dx":527,"dy":326,"t":15201},{"dx":527,"dy":326,"t":15307},{"dx":527,"dy":326,"t":15411}],[{"dx":383,"dy":236,"t":16419},{"dx":383,"dy":236,"t":16516},{"dx":383,"dy":236,"t":16615},{"dx":383,"dy":236,"t":16719},{"dx":383,"dy":236,"t":16818},{"dx":383,"dy":236,"t":16915},{"dx":383,"dy":236,"t":17017},{"dx":383,"dy":236,"t":17116},{"dx":383,"dy":236,"t":17215},{"dx":383,"dy":236,"t":17320},{"dx":383,"dy":236,"t":17417},{"dx":383,"dy":236,"t":17514},{"dx":383,"dy":236,"t":17616},{"dx":383,"dy":236,"t":17715},{"dx":383,"dy":236,"t":17811},{"dx":383,"dy":236,"t":17915},{"dx":383,"dy":236,"t":18014},{"dx":383,"dy":236,"t":18112},{"dx":383,"dy":236,"t":18216},{"dx":383,"dy":236,"t":18314},{"dx":383,"dy":236,"t":18411}],[{"dx":383,"dy":-214,"t":19444},{"dx":383,"dy":-214,"t":19556},{"dx":383,"dy":-214,"t":19665},{"dx":383,"dy":-214,"t":19769},{"dx":383,"dy":-214,"t":19878},{"dx":383,"dy":-214,"t":19984},{"dx":383,"dy":-214,"t":20091},{"dx":383,"dy":-214,"t":20206},{"dx":383,"dy":-214,"t":20315},{"dx":383,"dy":-214,"t":20423},{"dx":383,"dy":-214,"t":20535},{"dx":383,"dy":-214,"t":20643},{"dx":383,"dy":-214,"t":20746},{"dx":383,"dy":-214,"t":20862},{"dx":383,"dy":-214,"t":20968},{"dx":383,"dy":-214,"t":21072},{"dx":383,"dy":-214,"t":21181},{"dx":383,"dy":-214,"t":21289},{"dx":383,"dy":-214,"t":21394},{"dx":383,"dy":-214,"t":21504}],[{"dx":527,"dy":-304,"t":22553},{"dx":527,"dy":-304,"t":22662},{"dx":527,"dy":-304,"t":22771},{"dx":527,"dy":-304,"t":22880},{"dx":527,"dy":-304,"t":22985},{"dx":527,"dy":-304,"t":23095},{"dx":527,"dy":-304,"t":23205},{"dx":527,"dy":-304,"t":23310},{"dx":527,"dy":-304,"t":23418},{"dx":527,"dy":-304,"t":23530},{"dx":527,"dy":-304,"t":23636},{"dx":527,"dy":-304,"t":23747},{"dx":527,"dy":-304,"t":23850},{"dx":527,"dy":-304,"t":23958},{"dx":527,"dy":-304,"t":24065},{"dx":527,"dy":-304,"t":24171},{"dx":527,"dy":-304,"t":24276},{"dx":527,"dy":-304,"t":24387},{"dx":527,"dy":-304,"t":24492},{"dx":527,"dy":-304,"t":24599}],[{"dx":203,"dy":-101.5,"t":25636},{"dx":203,"dy":-101.5,"t":25744},{"dx":203,"dy":-101.5,"t":25850},{"dx":203,"dy":-101.5,"t":25956},{"dx":203,"dy":-101.5,"t":26069},{"dx":203,"dy":-101.5,"t":26180},{"dx":203,"dy":-101.5,"t":26284},{"dx":203,"dy":-101.5,"t":26393},{"dx":203,"dy":-101.5,"t":26504},{"dx":203,"dy":-101.5,"t":26611},{"dx":203,"dy":-101.5,"t":26717},{"dx":203,"dy":-101.5,"t":26826},{"dx":203,"dy":-101.5,"t":26932},{"dx":203,"dy":-101.5,"t":27040},{"dx":203,"dy":-101.5,"t":27150},{"dx":203,"dy":-101.5,"t":27259},{"dx":203,"dy":-101.5,"t":27367},{"dx":203,"dy":-101.5,"t":27477},{"dx":203,"dy":-101.5,"t":27582},{"dx":203,"dy":-101.5,"t":27690}],[{"dx":-157,"dy":123.5,"t":28725},{"dx":-157,"dy":123.5,"t":28834},{"dx":-157,"dy":123.5,"t":28938},{"dx":-157,"dy":123.5,"t":29043},{"dx":-157,"dy":123.5,"t":29154},{"dx":-157,"dy":123.5,"t":29262},{"dx":-157,"dy":123.5,"t":29366},{"dx":-157,"dy":123.5,"t":29470},{"dx":-157,"dy":123.5,"t":29581},{"dx":-157,"dy":123.5,"t":29687},{"dx":-157,"dy":123.5,"t":29795},{"dx":-157,"dy":123.5,"t":29904},{"dx":-157,"dy":123.5,"t":30008},{"dx":-157,"dy":123.5,"t":30115},{"dx":-157,"dy":123.5,"t":30220},{"dx":-157,"dy":123.5,"t":30327},{"dx":-157,"dy":123.5,"t":30430},{"dx":-157,"dy":123.5,"t":30545},{"dx":-157,"dy":123.5,"t":30653},{"dx":-157,"dy":123.5,"t":30760}],[{"dx":23,"dy":11,"t":31819},{"dx":23,"dy":11,"t":31927},{"dx":23,"dy":11,"t":32031},{"dx":23,"dy":11,"t":32140},{"dx":23,"dy":11,"t":32247},{"dx":23,"dy":11,"t":32350},{"dx":23,"dy":11,"t":32464},{"dx":23,"dy":11,"t":32570},{"dx":23,"dy":11,"t":32678},{"dx":23,"dy":11,"t":32791},{"dx":23,"dy":11,"t":32896},{"dx":23,"dy":11,"t":33002},{"dx":23,"dy":11,"t":33107},{"dx":23,"dy":11,"t":33220},{"dx":23,"dy":11,"t":33326},{"dx":23,"dy":11,"t":33431},{"dx":23,"dy":11,"t":33541},{"dx":23,"dy":11,"t":33649},{"dx":23,"dy":11,"t":33754},{"dx":23,"dy":11,"t":33864}],[{"dx":-481,"dy":-304,"t":34879},{"dx":-481,"dy":-304,"t":34983},{"dx":-481,"dy":-304,"t":35094},{"dx":-481,"dy":-304,"t":35201},{"dx":-481,"dy":-304,"t":35307},{"dx":-481,"dy":-304,"t":35417},{"dx":-481,"dy":-304,"t":35525},{"dx":-481,"dy":-304,"t":35631},{"dx":-481,"dy":-304,"t":35740},{"dx":-481,"dy":-304,"t":35848},{"dx":-481,"dy":-304,"t":35958},{"dx":-481,"dy":-304,"t":36067},{"dx":-481,"dy":-304,"t":36173},{"dx":-481,"dy":-304,"t":36278},{"dx":-481,"dy":-304,"t":36387},{"dx":-481,"dy":-304,"t":36493},{"dx":-481,"dy":-304,"t":36599},{"dx":-481,"dy":-304,"t":36704},{"dx":-481,"dy":-304,"t":36812},{"dx":-481,"dy":-304,"t":36918}],[{"dx":-157,"dy":-101.5,"t":37968},{"dx":-157,"dy":-101.5,"t":38080},{"dx":-157,"dy":-101.5,"t":38187},{"dx":-157,"dy":-101.5,"t":38294},{"dx":-157,"dy":-101.5,"t":38404},{"dx":-157,"dy":-101.5,"t":38509},{"dx":-157,"dy":-101.5,"t":38617},{"dx":-157,"dy":-101.5,"t":38729},{"dx":-157,"dy":-101.5,"t":38835},{"dx":-157,"dy":-101.5,"t":38940},{"dx":-157,"dy":-101.5,"t":39053},{"dx":-157,"dy":-101.5,"t":39161},{"dx":-157,"dy":-101.5,"t":39266},{"dx":-157,"dy":-101.5,"t":39375},{"dx":-157,"dy":-101.5,"t":39481},{"dx":-157,"dy":-101.5,"t":39588},{"dx":-157,"dy":-101.5,"t":39699},{"dx":-157,"dy":-101.5,"t":39801},{"dx":-157,"dy":-101.5,"t":39910}]],"percent_in_roi":[0,0,0,0,0,0,0,0,0,0,100,0,0],"average_offset":[{"x":-479.55,"y":326.95,"r":2.6695758436784165},{"x":-337,"y":236,"r":0},{"x":-337,"y":-214,"r":0},{"x":203,"y":123.5,"r":0},{"x":527,"y":326,"r":0},{"x":383,"y":236,"r":0},{"x":383,"y":-214,"r":0},{"x":527,"y":-304,"r":0},{"x":203,"y":-101.5,"r":0},{"x":-157,"y":123.5,"r":0},{"x":23,"y":11,"r":0},{"x":-481,"y":-304,"r":0},{"x":-157,"y":-101.5,"r":0}],"samples_per_sec":"9.32","clicks":15,"pattern":"spread","trial_type":"webgazer-validate","trial_index":13,"time_elapsed":121710,"internal_node_id":"0.0-10.0-3.0","validation_points":[[85,15],[75,25],[75,75],[37.5,37.5],[15,15],[25,25],[25,75],[15,85],[37.5,62.5],[62.5,37.5],[50,50],[85,85],[62.5,62.5]],"user_agent":"Mozilla/5.0 (Macintosh; Intel Mac OS X 10_15_7) AppleWebKit/605.1.15 (KHTML, like Gecko) Version/14.0.3 Safari/605.1.15","screen_width_px":1440,"screen_height_px":900},{"rt":2206.0000000000146,"stimulus":"\n      <p>Round complete.</p>\n      <p>You can move a little bit, but please try to return you head to the same general location before continuing.</p>\n    ","response":0,"trial_type":"html-button-response","trial_index":14,"time_elapsed":123924,"internal_node_id":"0.0-10.0-4.0","user_agent":"Mozilla/5.0 (Macintosh; Intel Mac OS X 10_15_7) AppleWebKit/605.1.15 (KHTML, like Gecko) Version/14.0.3 Safari/605.1.15","screen_width_px":1440,"screen_height_px":900},{"trial_type":"webgazer-init-camera","trial_index":15,"time_elapsed":127945,"internal_node_id":"0.0-10.0-5.0","user_agent":"Mozilla/5.0 (Macintosh; Intel Mac OS X 10_15_7) AppleWebKit/605.1.15 (KHTML, like Gecko) Version/14.0.3 Safari/605.1.15","screen_width_px":1440,"screen_height_px":900},{"rt":1569,"stimulus":"\n      <p>Calibration phase next.</p>\n      <p>Click on the dots.</p>\n    ","response":0,"trial_type":"html-button-response","trial_index":16,"time_elapsed":129518,"internal_node_id":"0.0-10.0-0.1","user_agent":"Mozilla/5.0 (Macintosh; Intel Mac OS X 10_15_7) AppleWebKit/605.1.15 (KHTML, like Gecko) Version/14.0.3 Safari/605.1.15","screen_width_px":1440,"screen_height_px":900},{"trial_type":"webgazer-calibrate","trial_index":17,"time_elapsed":151207,"internal_node_id":"0.0-10.0-1.1","user_agent":"Mozilla/5.0 (Macintosh; Intel Mac OS X 10_15_7) AppleWebKit/605.1.15 (KHTML, like Gecko) Version/14.0.3 Safari/605.1.15","screen_width_px":1440,"screen_height_px":900},{"rt":803,"stimulus":"\n      <p>Validation phase next.</p>\n      <p>Look at the dots.</p>\n    ","response":0,"trial_type":"html-button-response","trial_index":18,"time_elapsed":152011,"internal_node_id":"0.0-10.0-2.1","user_agent":"Mozilla/5.0 (Macintosh; Intel Mac OS X 10_15_7) AppleWebKit/605.1.15 (KHTML, like Gecko) Version/14.0.3 Safari/605.1.15","screen_width_px":1440,"screen_height_px":900},{"raw_gaze":[[{"dx":373,"dy":-224,"t":1090},{"dx":370,"dy":-224,"t":1208},{"dx":369,"dy":-224,"t":1319},{"dx":367,"dy":-225,"t":1426},{"dx":366,"dy":-225,"t":1543},{"dx":365,"dy":-226,"t":1654},{"dx":365,"dy":-226,"t":1763},{"dx":365,"dy":-226,"t":1877},{"dx":365,"dy":-226,"t":1990},{"dx":365,"dy":-226,"t":2101},{"dx":365,"dy":-226,"t":2218},{"dx":365,"dy":-226,"t":2329},{"dx":365,"dy":-226,"t":2439},{"dx":365,"dy":-226,"t":2556},{"dx":365,"dy":-226,"t":2670},{"dx":365,"dy":-226,"t":2781},{"dx":365,"dy":-226,"t":2893},{"dx":365,"dy":-226,"t":3010},{"dx":365,"dy":-226,"t":3120}],[{"dx":509,"dy":314,"t":4177},{"dx":509,"dy":314,"t":4282},{"dx":509,"dy":314,"t":4387},{"dx":509,"dy":314,"t":4496},{"dx":509,"dy":314,"t":4606},{"dx":509,"dy":314,"t":4710},{"dx":509,"dy":314,"t":4821},{"dx":509,"dy":314,"t":4928},{"dx":509,"dy":314,"t":5034},{"dx":509,"dy":314,"t":5146},{"dx":509,"dy":314,"t":5252},{"dx":509,"dy":314,"t":5360},{"dx":509,"dy":314,"t":5475},{"dx":509,"dy":314,"t":5580},{"dx":509,"dy":314,"t":5686},{"dx":509,"dy":314,"t":5795},{"dx":509,"dy":314,"t":5898},{"dx":509,"dy":314,"t":6003},{"dx":509,"dy":314,"t":6115},{"dx":509,"dy":314,"t":6224}],[{"dx":-355,"dy":224,"t":7277},{"dx":-355,"dy":224,"t":7385},{"dx":-355,"dy":224,"t":7496},{"dx":-355,"dy":224,"t":7601},{"dx":-355,"dy":224,"t":7706},{"dx":-355,"dy":224,"t":7816},{"dx":-355,"dy":224,"t":7926},{"dx":-355,"dy":224,"t":8034},{"dx":-355,"dy":224,"t":8146},{"dx":-355,"dy":224,"t":8250},{"dx":-355,"dy":224,"t":8358},{"dx":-355,"dy":224,"t":8468},{"dx":-355,"dy":224,"t":8576},{"dx":-355,"dy":224,"t":8683},{"dx":-355,"dy":224,"t":8789},{"dx":-355,"dy":224,"t":8894},{"dx":-355,"dy":224,"t":9002},{"dx":-355,"dy":224,"t":9108},{"dx":-355,"dy":224,"t":9214},{"dx":-355,"dy":224,"t":9320}],[{"dx":-499,"dy":-316,"t":10361},{"dx":-499,"dy":-316,"t":10466},{"dx":-499,"dy":-316,"t":10577},{"dx":-499,"dy":-316,"t":10682},{"dx":-499,"dy":-316,"t":10790},{"dx":-499,"dy":-316,"t":10901},{"dx":-499,"dy":-316,"t":11003},{"dx":-499,"dy":-316,"t":11110},{"dx":-499,"dy":-316,"t":11219},{"dx":-499,"dy":-316,"t":11326},{"dx":-499,"dy":-316,"t":11430},{"dx":-499,"dy":-316,"t":11541},{"dx":-499,"dy":-316,"t":11646},{"dx":-499,"dy":-316,"t":11754},{"dx":-499,"dy":-316,"t":11870},{"dx":-499,"dy":-316,"t":11975},{"dx":-499,"dy":-316,"t":12084},{"dx":-499,"dy":-316,"t":12198},{"dx":-499,"dy":-316,"t":12309},{"dx":-499,"dy":-316,"t":12418}],[{"dx":185,"dy":-113.5,"t":13470},{"dx":185,"dy":-113.5,"t":13580},{"dx":185,"dy":-113.5,"t":13685},{"dx":185,"dy":-113.5,"t":13789},{"dx":185,"dy":-113.5,"t":13900},{"dx":185,"dy":-113.5,"t":14006},{"dx":185,"dy":-113.5,"t":14111},{"dx":185,"dy":-113.5,"t":14219},{"dx":185,"dy":-113.5,"t":14323},{"dx":185,"dy":-113.5,"t":14431},{"dx":185,"dy":-113.5,"t":14540},{"dx":185,"dy":-113.5,"t":14646},{"dx":185,"dy":-113.5,"t":14755},{"dx":185,"dy":-113.5,"t":14863},{"dx":185,"dy":-113.5,"t":14966},{"dx":185,"dy":-113.5,"t":15070},{"dx":185,"dy":-113.5,"t":15182},{"dx":185,"dy":-113.5,"t":15290},{"dx":185,"dy":-113.5,"t":15397},{"dx":185,"dy":-113.5,"t":15508}],[{"dx":185,"dy":111.5,"t":16539},{"dx":185,"dy":111.5,"t":16648},{"dx":185,"dy":111.5,"t":16759},{"dx":185,"dy":111.5,"t":16863},{"dx":185,"dy":111.5,"t":16969},{"dx":185,"dy":111.5,"t":17083},{"dx":185,"dy":111.5,"t":17189},{"dx":185,"dy":111.5,"t":17300},{"dx":185,"dy":111.5,"t":17413},{"dx":185,"dy":111.5,"t":17521},{"dx":185,"dy":111.5,"t":17631},{"dx":185,"dy":111.5,"t":17743},{"dx":185,"dy":111.5,"t":17852},{"dx":185,"dy":111.5,"t":17962},{"dx":185,"dy":111.5,"t":18077},{"dx":185,"dy":111.5,"t":18191},{"dx":185,"dy":111.5,"t":18302},{"dx":185,"dy":111.5,"t":18416},{"dx":185,"dy":111.5,"t":18527}],[{"dx":509,"dy":-316,"t":19562},{"dx":509,"dy":-316,"t":19676},{"dx":509,"dy":-316,"t":19782},{"dx":509,"dy":-316,"t":19889},{"dx":509,"dy":-316,"t":20003},{"dx":509,"dy":-316,"t":20109},{"dx":509,"dy":-316,"t":20216},{"dx":509,"dy":-316,"t":20327},{"dx":509,"dy":-316,"t":20437},{"dx":509,"dy":-316,"t":20541},{"dx":509,"dy":-316,"t":20648},{"dx":509,"dy":-316,"t":20757},{"dx":509,"dy":-316,"t":20864},{"dx":509,"dy":-316,"t":20971},{"dx":509,"dy":-316,"t":21074},{"dx":509,"dy":-316,"t":21179},{"dx":509,"dy":-316,"t":21286},{"dx":509,"dy":-316,"t":21398},{"dx":509,"dy":-316,"t":21503},{"dx":509,"dy":-316,"t":21607}],[{"dx":-355,"dy":-226,"t":22655},{"dx":-355,"dy":-226,"t":22760},{"dx":-355,"dy":-226,"t":22865},{"dx":-355,"dy":-226,"t":22977},{"dx":-355,"dy":-226,"t":23082},{"dx":-355,"dy":-226,"t":23190},{"dx":-355,"dy":-226,"t":23301},{"dx":-355,"dy":-226,"t":23409},{"dx":-355,"dy":-226,"t":23518},{"dx":-355,"dy":-226,"t":23633},{"dx":-355,"dy":-226,"t":23739},{"dx":-355,"dy":-226,"t":23846},{"dx":-355,"dy":-226,"t":23956},{"dx":-355,"dy":-226,"t":24061},{"dx":-355,"dy":-226,"t":24167},{"dx":-355,"dy":-226,"t":24278},{"dx":-355,"dy":-226,"t":24386},{"dx":-355,"dy":-226,"t":24498},{"dx":-355,"dy":-226,"t":24609},{"dx":-355,"dy":-226,"t":24714}],[{"dx":-175,"dy":-113.5,"t":25767},{"dx":-175,"dy":-113.5,"t":25874},{"dx":-175,"dy":-113.5,"t":25979},{"dx":-175,"dy":-113.5,"t":26086},{"dx":-175,"dy":-113.5,"t":26191},{"dx":-175,"dy":-113.5,"t":26299},{"dx":-175,"dy":-113.5,"t":26411},{"dx":-175,"dy":-113.5,"t":26519},{"dx":-175,"dy":-113.5,"t":26627},{"dx":-175,"dy":-113.5,"t":26736},{"dx":-175,"dy":-113.5,"t":26841},{"dx":-175,"dy":-113.5,"t":26950},{"dx":-175,"dy":-113.5,"t":27060},{"dx":-175,"dy":-113.5,"t":27168},{"dx":-175,"dy":-113.5,"t":27271},{"dx":-175,"dy":-113.5,"t":27380},{"dx":-175,"dy":-113.5,"t":27488},{"dx":-175,"dy":-113.5,"t":27594},{"dx":-175,"dy":-113.5,"t":27699},{"dx":-175,"dy":-113.5,"t":27806}],[{"dx":5,"dy":-1,"t":28851},{"dx":5,"dy":-1,"t":28962},{"dx":5,"dy":-1,"t":29064},{"dx":5,"dy":-1,"t":29176},{"dx":5,"dy":-1,"t":29285},{"dx":5,"dy":-1,"t":29391},{"dx":5,"dy":-1,"t":29500},{"dx":5,"dy":-1,"t":29603},{"dx":5,"dy":-1,"t":29707},{"dx":5,"dy":-1,"t":29816},{"dx":5,"dy":-1,"t":29921},{"dx":5,"dy":-1,"t":30026},{"dx":5,"dy":-1,"t":30132},{"dx":5,"dy":-1,"t":30237},{"dx":5,"dy":-1,"t":30342},{"dx":5,"dy":-1,"t":30454},{"dx":5,"dy":-1,"t":30564},{"dx":5,"dy":-1,"t":30672},{"dx":5,"dy":-1,"t":30782},{"dx":5,"dy":-1,"t":30889}],[{"dx":-175,"dy":111.5,"t":31931},{"dx":-175,"dy":111.5,"t":32038},{"dx":-175,"dy":111.5,"t":32142},{"dx":-175,"dy":111.5,"t":32254},{"dx":-175,"dy":111.5,"t":32357},{"dx":-175,"dy":111.5,"t":32462},{"dx":-175,"dy":111.5,"t":32574},{"dx":-175,"dy":111.5,"t":32681},{"dx":-175,"dy":111.5,"t":32783},{"dx":-175,"dy":111.5,"t":32891},{"dx":-175,"dy":111.5,"t":33002},{"dx":-175,"dy":111.5,"t":33109},{"dx":-175,"dy":111.5,"t":33212},{"dx":-175,"dy":111.5,"t":33322},{"dx":-175,"dy":111.5,"t":33429},{"dx":-175,"dy":111.5,"t":33533},{"dx":-175,"dy":111.5,"t":33643},{"dx":-175,"dy":111.5,"t":33749},{"dx":-175,"dy":111.5,"t":33857},{"dx":-175,"dy":111.5,"t":33969}],[{"dx":365,"dy":224,"t":35011},{"dx":365,"dy":224,"t":35118},{"dx":365,"dy":224,"t":35225},{"dx":365,"dy":224,"t":35334},{"dx":365,"dy":224,"t":35438},{"dx":365,"dy":224,"t":35542},{"dx":365,"dy":224,"t":35653},{"dx":365,"dy":224,"t":35759},{"dx":365,"dy":224,"t":35864},{"dx":365,"dy":224,"t":35970},{"dx":365,"dy":224,"t":36075},{"dx":365,"dy":224,"t":36176},{"dx":365,"dy":224,"t":36284},{"dx":365,"dy":224,"t":36396},{"dx":365,"dy":224,"t":36501},{"dx":365,"dy":224,"t":36606},{"dx":365,"dy":224,"t":36715},{"dx":365,"dy":224,"t":36821},{"dx":365,"dy":224,"t":36926},{"dx":365,"dy":224,"t":37032}],[{"dx":-499,"dy":314,"t":38068},{"dx":-499,"dy":314,"t":38173},{"dx":-499,"dy":314,"t":38277},{"dx":-499,"dy":314,"t":38387},{"dx":-499,"dy":314,"t":38491},{"dx":-499,"dy":314,"t":38599},{"dx":-499,"dy":314,"t":38708},{"dx":-499,"dy":314,"t":38813},{"dx":-499,"dy":314,"t":38917},{"dx":-499,"dy":314,"t":39027},{"dx":-499,"dy":314,"t":39134},{"dx":-499,"dy":314,"t":39239},{"dx":-499,"dy":314,"t":39349},{"dx":-499,"dy":314,"t":39455},{"dx":-499,"dy":314,"t":39563},{"dx":-499,"dy":314,"t":39670},{"dx":-499,"dy":314,"t":39779},{"dx":-499,"dy":314,"t":39881},{"dx":-499,"dy":314,"t":39986}]],"percent_in_roi":[0,0,0,0,0,0,0,0,0,100,0,0,0],"average_offset":[{"x":366.05263157894734,"y":-225.57894736842104,"r":1.133718906765138},{"x":509,"y":314,"r":0},{"x":-355,"y":224,"r":0},{"x":-499,"y":-316,"r":0},{"x":185,"y":-113.5,"r":0},{"x":185,"y":111.5,"r":0},{"x":509,"y":-316,"r":0},{"x":-355,"y":-226,"r":0},{"x":-175,"y":-113.5,"r":0},{"x":5,"y":-1,"r":0},{"x":-175,"y":111.5,"r":0},{"x":365,"y":224,"r":0},{"x":-499,"y":314,"r":0}],"samples_per_sec":"9.25","clicks":15,"pattern":"cond","trial_type":"webgazer-validate","trial_index":19,"time_elapsed":193060,"internal_node_id":"0.0-10.0-3.1","validation_points":[[25,75],[15,15],[75,25],[85,85],[37.5,62.5],[37.5,37.5],[15,85],[75,75],[62.5,62.5],[50,50],[62.5,37.5],[25,25],[85,15]],"user_agent":"Mozilla/5.0 (Macintosh; Intel Mac OS X 10_15_7) AppleWebKit/605.1.15 (KHTML, like Gecko) Version/14.0.3 Safari/605.1.15","screen_width_px":1440,"screen_height_px":900},{"rt":1408,"stimulus":"\n      <p>Round complete.</p>\n      <p>You can move a little bit, but please try to return you head to the same general location before continuing.</p>\n    ","response":0,"trial_type":"html-button-response","trial_index":20,"time_elapsed":194469,"internal_node_id":"0.0-10.0-4.1","user_agent":"Mozilla/5.0 (Macintosh; Intel Mac OS X 10_15_7) AppleWebKit/605.1.15 (KHTML, like Gecko) Version/14.0.3 Safari/605.1.15","screen_width_px":1440,"screen_height_px":900},{"trial_type":"webgazer-init-camera","trial_index":21,"time_elapsed":207198,"internal_node_id":"0.0-10.0-5.1","user_agent":"Mozilla/5.0 (Macintosh; Intel Mac OS X 10_15_7) AppleWebKit/605.1.15 (KHTML, like Gecko) Version/14.0.3 Safari/605.1.15","screen_width_px":1440,"screen_height_px":900},{"rt":1025,"stimulus":"\n      <p>Calibration phase next.</p>\n      <p>Click on the dots.</p>\n    ","response":0,"trial_type":"html-button-response","trial_index":22,"time_elapsed":208227,"internal_node_id":"0.0-10.0-0.2","user_agent":"Mozilla/5.0 (Macintosh; Intel Mac OS X 10_15_7) AppleWebKit/605.1.15 (KHTML, like Gecko) Version/14.0.3 Safari/605.1.15","screen_width_px":1440,"screen_height_px":900},{"trial_type":"webgazer-calibrate","trial_index":23,"time_elapsed":245591,"internal_node_id":"0.0-10.0-1.2","user_agent":"Mozilla/5.0 (Macintosh; Intel Mac OS X 10_15_7) AppleWebKit/605.1.15 (KHTML, like Gecko) Version/14.0.3 Safari/605.1.15","screen_width_px":1440,"screen_height_px":900},{"rt":870.0000000000291,"stimulus":"\n      <p>Validation phase next.</p>\n      <p>Look at the dots.</p>\n    ","response":0,"trial_type":"html-button-response","trial_index":24,"time_elapsed":246463,"internal_node_id":"0.0-10.0-2.2","user_agent":"Mozilla/5.0 (Macintosh; Intel Mac OS X 10_15_7) AppleWebKit/605.1.15 (KHTML, like Gecko) Version/14.0.3 Safari/605.1.15","screen_width_px":1440,"screen_height_px":900},{"raw_gaze":[[{"dx":-464,"dy":302,"t":1090},{"dx":-468,"dy":307,"t":1199},{"dx":-472,"dy":310,"t":1307},{"dx":-474,"dy":313,"t":1421},{"dx":-476,"dy":314,"t":1530},{"dx":-476,"dy":315,"t":1640},{"dx":-477,"dy":315,"t":1751},{"dx":-477,"dy":315,"t":1859},{"dx":-477,"dy":315,"t":1966},{"dx":-477,"dy":315,"t":2080},{"dx":-477,"dy":315,"t":2185},{"dx":-476,"dy":314,"t":2290},{"dx":-476,"dy":314,"t":2402},{"dx":-476,"dy":314,"t":2510},{"dx":-476,"dy":314,"t":2619},{"dx":-476,"dy":314,"t":2730},{"dx":-476,"dy":314,"t":2835},{"dx":-476,"dy":314,"t":2942},{"dx":-476,"dy":314,"t":3055},{"dx":-476,"dy":314,"t":3163}],[{"dx":-476,"dy":-316,"t":4178},{"dx":-476,"dy":-316,"t":4287},{"dx":-476,"dy":-316,"t":4399},{"dx":-476,"dy":-316,"t":4508},{"dx":-476,"dy":-316,"t":4618},{"dx":-476,"dy":-316,"t":4730},{"dx":-476,"dy":-316,"t":4841},{"dx":-476,"dy":-316,"t":4948},{"dx":-476,"dy":-316,"t":5063},{"dx":-476,"dy":-316,"t":5169},{"dx":-476,"dy":-316,"t":5279},{"dx":-476,"dy":-316,"t":5389},{"dx":-476,"dy":-316,"t":5497},{"dx":-476,"dy":-316,"t":5605},{"dx":-476,"dy":-316,"t":5716},{"dx":-476,"dy":-316,"t":5826},{"dx":-476,"dy":-316,"t":5934},{"dx":-476,"dy":-316,"t":6043},{"dx":-476,"dy":-316,"t":6154},{"dx":-476,"dy":-316,"t":6262}],[{"dx":532,"dy":314,"t":7281},{"dx":532,"dy":314,"t":7388},{"dx":532,"dy":314,"t":7494},{"dx":532,"dy":314,"t":7606},{"dx":532,"dy":314,"t":7716},{"dx":532,"dy":314,"t":7822},{"dx":532,"dy":314,"t":7930},{"dx":532,"dy":314,"t":8043},{"dx":532,"dy":314,"t":8147},{"dx":532,"dy":314,"t":8251},{"dx":532,"dy":314,"t":8364},{"dx":532,"dy":314,"t":8471},{"dx":532,"dy":314,"t":8580},{"dx":532,"dy":314,"t":8691},{"dx":532,"dy":314,"t":8797},{"dx":532,"dy":314,"t":8902},{"dx":532,"dy":314,"t":9011},{"dx":532,"dy":314,"t":9117},{"dx":532,"dy":314,"t":9225},{"dx":532,"dy":314,"t":9338}],[{"dx":28,"dy":-1,"t":10343},{"dx":28,"dy":-1,"t":10449},{"dx":28,"dy":-1,"t":10562},{"dx":28,"dy":-1,"t":10666},{"dx":28,"dy":-1,"t":10775},{"dx":28,"dy":-1,"t":10885},{"dx":28,"dy":-1,"t":10994},{"dx":28,"dy":-1,"t":11105},{"dx":28,"dy":-1,"t":11213},{"dx":28,"dy":-1,"t":11323},{"dx":28,"dy":-1,"t":11431},{"dx":28,"dy":-1,"t":11540},{"dx":28,"dy":-1,"t":11652},{"dx":28,"dy":-1,"t":11761},{"dx":28,"dy":-1,"t":11870},{"dx":28,"dy":-1,"t":11982},{"dx":28,"dy":-1,"t":12089},{"dx":28,"dy":-1,"t":12197},{"dx":28,"dy":-1,"t":12308},{"dx":28,"dy":-1,"t":12411}],[{"dx":388,"dy":224,"t":13417},{"dx":388,"dy":224,"t":13525},{"dx":388,"dy":224,"t":13634},{"dx":388,"dy":224,"t":13745},{"dx":388,"dy":224,"t":13854},{"dx":388,"dy":224,"t":13960},{"dx":388,"dy":224,"t":14073},{"dx":388,"dy":224,"t":14182},{"dx":388,"dy":224,"t":14290},{"dx":388,"dy":224,"t":14401},{"dx":388,"dy":224,"t":14505},{"dx":388,"dy":224,"t":14616},{"dx":388,"dy":224,"t":14728},{"dx":388,"dy":224,"t":14838},{"dx":388,"dy":224,"t":14943},{"dx":388,"dy":224,"t":15055},{"dx":388,"dy":224,"t":15163},{"dx":388,"dy":224,"t":15271},{"dx":388,"dy":224,"t":15378},{"dx":388,"dy":224,"t":15487}],[{"dx":-332,"dy":-226,"t":16534},{"dx":-332,"dy":-226,"t":16640},{"dx":-332,"dy":-226,"t":16748},{"dx":-332,"dy":-226,"t":16859},{"dx":-332,"dy":-226,"t":16967},{"dx":-332,"dy":-226,"t":17074},{"dx":-332,"dy":-226,"t":17190},{"dx":-332,"dy":-226,"t":17294},{"dx":-332,"dy":-226,"t":17402},{"dx":-332,"dy":-226,"t":17513},{"dx":-332,"dy":-226,"t":17621},{"dx":-332,"dy":-226,"t":17730},{"dx":-332,"dy":-226,"t":17842},{"dx":-332,"dy":-226,"t":17952},{"dx":-332,"dy":-226,"t":18062},{"dx":-332,"dy":-226,"t":18176},{"dx":-332,"dy":-226,"t":18286},{"dx":-332,"dy":-226,"t":18396},{"dx":-332,"dy":-226,"t":18512}],[{"dx":532,"dy":-316,"t":19529},{"dx":532,"dy":-316,"t":19637},{"dx":532,"dy":-316,"t":19746},{"dx":532,"dy":-316,"t":19860},{"dx":532,"dy":-316,"t":19969},{"dx":532,"dy":-316,"t":20082},{"dx":532,"dy":-316,"t":20194},{"dx":532,"dy":-316,"t":20303},{"dx":532,"dy":-316,"t":20414},{"dx":532,"dy":-316,"t":20525},{"dx":532,"dy":-316,"t":20639},{"dx":532,"dy":-316,"t":20747},{"dx":532,"dy":-316,"t":20853},{"dx":532,"dy":-316,"t":20966},{"dx":532,"dy":-316,"t":21074},{"dx":532,"dy":-316,"t":21184},{"dx":532,"dy":-316,"t":21292},{"dx":532,"dy":-316,"t":21401},{"dx":532,"dy":-316,"t":21512}],[{"dx":-152,"dy":-113.5,"t":22521},{"dx":-152,"dy":-113.5,"t":22630},{"dx":-152,"dy":-113.5,"t":22738},{"dx":-152,"dy":-113.5,"t":22845},{"dx":-152,"dy":-113.5,"t":22957},{"dx":-152,"dy":-113.5,"t":23067},{"dx":-152,"dy":-113.5,"t":23178},{"dx":-152,"dy":-113.5,"t":23291},{"dx":-152,"dy":-113.5,"t":23400},{"dx":-152,"dy":-113.5,"t":23504},{"dx":-152,"dy":-113.5,"t":23618},{"dx":-152,"dy":-113.5,"t":23725},{"dx":-152,"dy":-113.5,"t":23833},{"dx":-152,"dy":-113.5,"t":23944},{"dx":-152,"dy":-113.5,"t":24051},{"dx":-152,"dy":-113.5,"t":24158},{"dx":-152,"dy":-113.5,"t":24263},{"dx":-152,"dy":-113.5,"t":24377},{"dx":-152,"dy":-113.5,"t":24485},{"dx":-152,"dy":-113.5,"t":24596}],[{"dx":-152,"dy":111.5,"t":25633},{"dx":-152,"dy":111.5,"t":25729},{"dx":-152,"dy":111.5,"t":25827},{"dx":-152,"dy":111.5,"t":25930},{"dx":-152,"dy":111.5,"t":26029},{"dx":-152,"dy":111.5,"t":26125},{"dx":-152,"dy":111.5,"t":26226},{"dx":-152,"dy":111.5,"t":26325},{"dx":-152,"dy":111.5,"t":26423},{"dx":-152,"dy":111.5,"t":26525},{"dx":-152,"dy":111.5,"t":26620},{"dx":-152,"dy":111.5,"t":26717},{"dx":-152,"dy":111.5,"t":26822},{"dx":-152,"dy":111.5,"t":26921},{"dx":-152,"dy":111.5,"t":27019},{"dx":-152,"dy":111.5,"t":27121},{"dx":-152,"dy":111.5,"t":27220},{"dx":-152,"dy":111.5,"t":27318},{"dx":-152,"dy":111.5,"t":27420},{"dx":-152,"dy":111.5,"t":27517},{"dx":-152,"dy":111.5,"t":27613}],[{"dx":388,"dy":-226,"t":28666},{"dx":388,"dy":-226,"t":28784},{"dx":388,"dy":-226,"t":28892},{"dx":388,"dy":-226,"t":28999},{"dx":388,"dy":-226,"t":29112},{"dx":388,"dy":-226,"t":29219},{"dx":388,"dy":-226,"t":29323},{"dx":388,"dy":-226,"t":29436},{"dx":388,"dy":-226,"t":29545},{"dx":388,"dy":-226,"t":29653},{"dx":388,"dy":-226,"t":29766},{"dx":388,"dy":-226,"t":29878},{"dx":388,"dy":-226,"t":29984},{"dx":388,"dy":-226,"t":30095},{"dx":388,"dy":-226,"t":30201},{"dx":388,"dy":-226,"t":30309},{"dx":388,"dy":-226,"t":30420},{"dx":388,"dy":-226,"t":30530},{"dx":388,"dy":-226,"t":30635}],[{"dx":-332,"dy":224,"t":31666},{"dx":-332,"dy":224,"t":31771},{"dx":-332,"dy":224,"t":31869},{"dx":-332,"dy":224,"t":31970},{"dx":-332,"dy":224,"t":32072},{"dx":-332,"dy":224,"t":32169},{"dx":-332,"dy":224,"t":32269},{"dx":-332,"dy":224,"t":32370},{"dx":-332,"dy":224,"t":32468},{"dx":-332,"dy":224,"t":32565},{"dx":-332,"dy":224,"t":32669},{"dx":-332,"dy":224,"t":32768},{"dx":-332,"dy":224,"t":32866},{"dx":-332,"dy":224,"t":32968},{"dx":-332,"dy":224,"t":33065},{"dx":-332,"dy":224,"t":33165},{"dx":-332,"dy":224,"t":33269},{"dx":-332,"dy":224,"t":33367},{"dx":-332,"dy":224,"t":33466},{"dx":-332,"dy":224,"t":33573},{"dx":-332,"dy":224,"t":33672}],[{"dx":208,"dy":111.5,"t":34690},{"dx":208,"dy":111.5,"t":34790},{"dx":208,"dy":111.5,"t":34891},{"dx":208,"dy":111.5,"t":34988},{"dx":208,"dy":111.5,"t":35089},{"dx":208,"dy":111.5,"t":35189},{"dx":208,"dy":111.5,"t":35287},{"dx":208,"dy":111.5,"t":35388},{"dx":208,"dy":111.5,"t":35486},{"dx":208,"dy":111.5,"t":35581},{"dx":208,"dy":111.5,"t":35681},{"dx":208,"dy":111.5,"t":35785},{"dx":208,"dy":111.5,"t":35884},{"dx":208,"dy":111.5,"t":35983},{"dx":208,"dy":111.5,"t":36087},{"dx":208,"dy":111.5,"t":36186},{"dx":208,"dy":111.5,"t":36286},{"dx":208,"dy":111.5,"t":36390},{"dx":208,"dy":111.5,"t":36488},{"dx":208,"dy":111.5,"t":36589},{"dx":208,"dy":111.5,"t":36690}],[{"dx":208,"dy":-113.5,"t":37713},{"dx":208,"dy":-113.5,"t":37824},{"dx":208,"dy":-113.5,"t":37934},{"dx":208,"dy":-113.5,"t":38045},{"dx":208,"dy":-113.5,"t":38155},{"dx":208,"dy":-113.5,"t":38263},{"dx":208,"dy":-113.5,"t":38369},{"dx":208,"dy":-113.5,"t":38475},{"dx":208,"dy":-113.5,"t":38586},{"dx":208,"dy":-113.5,"t":38695},{"dx":208,"dy":-113.5,"t":38805},{"dx":208,"dy":-113.5,"t":38917},{"dx":208,"dy":-113.5,"t":39025},{"dx":208,"dy":-113.5,"t":39131},{"dx":208,"dy":-113.5,"t":39242},{"dx":208,"dy":-113.5,"t":39349},{"dx":208,"dy":-113.5,"t":39454},{"dx":208,"dy":-113.5,"t":39569},{"dx":208,"dy":-113.5,"t":39679}]],"percent_in_roi":[0,0,0,100,0,0,0,0,0,0,0,0,0],"average_offset":[{"x":-474.95,"y":313.1,"r":2.07439750289089},{"x":-476,"y":-316,"r":0},{"x":532,"y":314,"r":0},{"x":28,"y":-1,"r":0},{"x":388,"y":224,"r":0},{"x":-332,"y":-226,"r":0},{"x":532,"y":-316,"r":0},{"x":-152,"y":-113.5,"r":0},{"x":-152,"y":111.5,"r":0},{"x":388,"y":-226,"r":0},{"x":-332,"y":224,"r":0},{"x":208,"y":111.5,"r":0},{"x":208,"y":-113.5,"r":0}],"samples_per_sec":"9.34","clicks":25,"pattern":"spread","trial_type":"webgazer-validate","trial_index":25,"time_elapsed":287198,"internal_node_id":"0.0-10.0-3.2","validation_points":[[85,15],[85,85],[15,15],[50,50],[25,25],[75,75],[15,85],[62.5,62.5],[62.5,37.5],[25,75],[75,25],[37.5,37.5],[37.5,62.5]],"user_agent":"Mozilla/5.0 (Macintosh; Intel Mac OS X 10_15_7) AppleWebKit/605.1.15 (KHTML, like Gecko) Version/14.0.3 Safari/605.1.15","screen_width_px":1440,"screen_height_px":900},{"rt":2017,"stimulus":"\n      <p>Round complete.</p>\n      <p>You can move a little bit, but please try to return you head to the same general location before continuing.</p>\n    ","response":0,"trial_type":"html-button-response","trial_index":26,"time_elapsed":289217,"internal_node_id":"0.0-10.0-4.2","user_agent":"Mozilla/5.0 (Macintosh; Intel Mac OS X 10_15_7) AppleWebKit/605.1.15 (KHTML, like Gecko) Version/14.0.3 Safari/605.1.15","screen_width_px":1440,"screen_height_px":900},{"trial_type":"webgazer-init-camera","trial_index":27,"time_elapsed":292239,"internal_node_id":"0.0-10.0-5.2","user_agent":"Mozilla/5.0 (Macintosh; Intel Mac OS X 10_15_7) AppleWebKit/605.1.15 (KHTML, like Gecko) Version/14.0.3 Safari/605.1.15","screen_width_px":1440,"screen_height_px":900},{"rt":1043,"stimulus":"\n      <p>Calibration phase next.</p>\n      <p>Click on the dots.</p>\n    ","response":0,"trial_type":"html-button-response","trial_index":28,"time_elapsed":293285,"internal_node_id":"0.0-10.0-0.3","user_agent":"Mozilla/5.0 (Macintosh; Intel Mac OS X 10_15_7) AppleWebKit/605.1.15 (KHTML, like Gecko) Version/14.0.3 Safari/605.1.15","screen_width_px":1440,"screen_height_px":900},{"trial_type":"webgazer-calibrate","trial_index":29,"time_elapsed":328041,"internal_node_id":"0.0-10.0-1.3","user_agent":"Mozilla/5.0 (Macintosh; Intel Mac OS X 10_15_7) AppleWebKit/605.1.15 (KHTML, like Gecko) Version/14.0.3 Safari/605.1.15","screen_width_px":1440,"screen_height_px":900},{"rt":925,"stimulus":"\n      <p>Validation phase next.</p>\n      <p>Look at the dots.</p>\n    ","response":0,"trial_type":"html-button-response","trial_index":30,"time_elapsed":328968,"internal_node_id":"0.0-10.0-2.3","user_agent":"Mozilla/5.0 (Macintosh; Intel Mac OS X 10_15_7) AppleWebKit/605.1.15 (KHTML, like Gecko) Version/14.0.3 Safari/605.1.15","screen_width_px":1440,"screen_height_px":900},{"raw_gaze":[[{"dx":386,"dy":-227,"t":1079},{"dx":382,"dy":-229,"t":1187},{"dx":378,"dy":-231,"t":1294},{"dx":376,"dy":-232,"t":1408},{"dx":375,"dy":-233,"t":1512},{"dx":374,"dy":-234,"t":1620},{"dx":374,"dy":-234,"t":1731},{"dx":374,"dy":-234,"t":1835},{"dx":374,"dy":-234,"t":1946},{"dx":374,"dy":-233,"t":2060},{"dx":374,"dy":-233,"t":2165},{"dx":375,"dy":-233,"t":2272},{"dx":375,"dy":-233,"t":2385},{"dx":375,"dy":-233,"t":2493},{"dx":375,"dy":-233,"t":2597},{"dx":375,"dy":-233,"t":2707},{"dx":375,"dy":-233,"t":2817},{"dx":375,"dy":-233,"t":2925},{"dx":375,"dy":-233,"t":3037},{"dx":375,"dy":-233,"t":3147}],[{"dx":195,"dy":104.5,"t":4162},{"dx":195,"dy":104.5,"t":4270},{"dx":195,"dy":104.5,"t":4384},{"dx":195,"dy":104.5,"t":4492},{"dx":195,"dy":104.5,"t":4599},{"dx":195,"dy":104.5,"t":4720},{"dx":195,"dy":104.5,"t":4829},{"dx":195,"dy":104.5,"t":4936},{"dx":195,"dy":104.5,"t":5053},{"dx":195,"dy":104.5,"t":5159},{"dx":195,"dy":104.5,"t":5270},{"dx":195,"dy":104.5,"t":5383},{"dx":195,"dy":104.5,"t":5493},{"dx":195,"dy":104.5,"t":5597},{"dx":195,"dy":104.5,"t":5712},{"dx":195,"dy":104.5,"t":5818},{"dx":195,"dy":104.5,"t":5925},{"dx":195,"dy":104.5,"t":6038},{"dx":195,"dy":104.5,"t":6145}],[{"dx":-165,"dy":-120.5,"t":7157},{"dx":-165,"dy":-120.5,"t":7266},{"dx":-165,"dy":-120.5,"t":7371},{"dx":-165,"dy":-120.5,"t":7487},{"dx":-165,"dy":-120.5,"t":7594},{"dx":-165,"dy":-120.5,"t":7700},{"dx":-165,"dy":-120.5,"t":7815},{"dx":-165,"dy":-120.5,"t":7926},{"dx":-165,"dy":-120.5,"t":8034},{"dx":-165,"dy":-120.5,"t":8147},{"dx":-165,"dy":-120.5,"t":8258},{"dx":-165,"dy":-120.5,"t":8363},{"dx":-165,"dy":-120.5,"t":8472},{"dx":-165,"dy":-120.5,"t":8580},{"dx":-165,"dy":-120.5,"t":8684},{"dx":-165,"dy":-120.5,"t":8795},{"dx":-165,"dy":-120.5,"t":8903},{"dx":-165,"dy":-120.5,"t":9012},{"dx":-165,"dy":-120.5,"t":9124},{"dx":-165,"dy":-120.5,"t":9233}],[{"dx":15,"dy":-8,"t":10241},{"dx":15,"dy":-8,"t":10353},{"dx":15,"dy":-8,"t":10459},{"dx":15,"dy":-8,"t":10567},{"dx":15,"dy":-8,"t":10680},{"dx":15,"dy":-8,"t":10790},{"dx":15,"dy":-8,"t":10898},{"dx":15,"dy":-8,"t":11015},{"dx":15,"dy":-8,"t":11123},{"dx":15,"dy":-8,"t":11235},{"dx":15,"dy":-8,"t":11344},{"dx":15,"dy":-8,"t":11455},{"dx":15,"dy":-8,"t":11564},{"dx":15,"dy":-8,"t":11668},{"dx":15,"dy":-8,"t":11775},{"dx":15,"dy":-8,"t":11886},{"dx":15,"dy":-8,"t":11993},{"dx":15,"dy":-8,"t":12099},{"dx":15,"dy":-8,"t":12215},{"dx":15,"dy":-8,"t":12322}],[{"dx":-345,"dy":217,"t":13326},{"dx":-345,"dy":217,"t":13434},{"dx":-345,"dy":217,"t":13544},{"dx":-345,"dy":217,"t":13654},{"dx":-345,"dy":217,"t":13762},{"dx":-345,"dy":217,"t":13882},{"dx":-345,"dy":217,"t":13991},{"dx":-345,"dy":217,"t":14096},{"dx":-345,"dy":217,"t":14209},{"dx":-345,"dy":217,"t":14318},{"dx":-345,"dy":217,"t":14424},{"dx":-345,"dy":217,"t":14535},{"dx":-345,"dy":217,"t":14644},{"dx":-345,"dy":217,"t":14749},{"dx":-345,"dy":217,"t":14856},{"dx":-345,"dy":217,"t":14972},{"dx":-345,"dy":217,"t":15081},{"dx":-345,"dy":217,"t":15189},{"dx":-345,"dy":217,"t":15299},{"dx":-345,"dy":217,"t":15409}],[{"dx":-489,"dy":307,"t":16463},{"dx":-489,"dy":307,"t":16576},{"dx":-489,"dy":307,"t":16684},{"dx":-489,"dy":307,"t":16797},{"dx":-489,"dy":307,"t":16908},{"dx":-489,"dy":307,"t":17020},{"dx":-489,"dy":307,"t":17130},{"dx":-489,"dy":307,"t":17235},{"dx":-489,"dy":307,"t":17348},{"dx":-489,"dy":307,"t":17460},{"dx":-489,"dy":307,"t":17580},{"dx":-489,"dy":307,"t":17690},{"dx":-489,"dy":307,"t":17799},{"dx":-489,"dy":307,"t":17913},{"dx":-489,"dy":307,"t":18021},{"dx":-489,"dy":307,"t":18129},{"dx":-489,"dy":307,"t":18238},{"dx":-489,"dy":307,"t":18345},{"dx":-489,"dy":307,"t":18453}],[{"dx":-345,"dy":-233,"t":19457},{"dx":-345,"dy":-233,"t":19572},{"dx":-345,"dy":-233,"t":19679},{"dx":-345,"dy":-233,"t":19779},{"dx":-345,"dy":-233,"t":19884},{"dx":-345,"dy":-233,"t":19984},{"dx":-345,"dy":-233,"t":20083},{"dx":-345,"dy":-233,"t":20186},{"dx":-345,"dy":-233,"t":20285},{"dx":-345,"dy":-233,"t":20382},{"dx":-345,"dy":-233,"t":20481},{"dx":-345,"dy":-233,"t":20580},{"dx":-345,"dy":-233,"t":20678},{"dx":-345,"dy":-233,"t":20776},{"dx":-345,"dy":-233,"t":20883},{"dx":-345,"dy":-233,"t":20982},{"dx":-345,"dy":-233,"t":21083},{"dx":-345,"dy":-233,"t":21185},{"dx":-345,"dy":-233,"t":21284},{"dx":-345,"dy":-233,"t":21390},{"dx":-345,"dy":-233,"t":21487}],[{"dx":-165,"dy":104.5,"t":22546},{"dx":-165,"dy":104.5,"t":22663},{"dx":-165,"dy":104.5,"t":22770},{"dx":-165,"dy":104.5,"t":22879},{"dx":-165,"dy":104.5,"t":22999},{"dx":-165,"dy":104.5,"t":23112},{"dx":-165,"dy":104.5,"t":23218},{"dx":-165,"dy":104.5,"t":23333},{"dx":-165,"dy":104.5,"t":23441},{"dx":-165,"dy":104.5,"t":23552},{"dx":-165,"dy":104.5,"t":23662},{"dx":-165,"dy":104.5,"t":23779},{"dx":-165,"dy":104.5,"t":23887},{"dx":-165,"dy":104.5,"t":23991},{"dx":-165,"dy":104.5,"t":24103},{"dx":-165,"dy":104.5,"t":24207},{"dx":-165,"dy":104.5,"t":24313},{"dx":-165,"dy":104.5,"t":24426},{"dx":-165,"dy":104.5,"t":24540}],[{"dx":519,"dy":307,"t":25566},{"dx":519,"dy":307,"t":25676},{"dx":519,"dy":307,"t":25780},{"dx":519,"dy":307,"t":25893},{"dx":519,"dy":307,"t":26004},{"dx":519,"dy":307,"t":26112},{"dx":519,"dy":307,"t":26226},{"dx":519,"dy":307,"t":26333},{"dx":519,"dy":307,"t":26441},{"dx":519,"dy":307,"t":26552},{"dx":519,"dy":307,"t":26661},{"dx":519,"dy":307,"t":26770},{"dx":519,"dy":307,"t":26880},{"dx":519,"dy":307,"t":26987},{"dx":519,"dy":307,"t":27091},{"dx":519,"dy":307,"t":27202},{"dx":519,"dy":307,"t":27310},{"dx":519,"dy":307,"t":27417},{"dx":519,"dy":307,"t":27526},{"dx":519,"dy":307,"t":27641}],[{"dx":195,"dy":-120.5,"t":28649},{"dx":195,"dy":-120.5,"t":28760},{"dx":195,"dy":-120.5,"t":28869},{"dx":195,"dy":-120.5,"t":28979},{"dx":195,"dy":-120.5,"t":29089},{"dx":195,"dy":-120.5,"t":29196},{"dx":195,"dy":-120.5,"t":29303},{"dx":195,"dy":-120.5,"t":29415},{"dx":195,"dy":-120.5,"t":29526},{"dx":195,"dy":-120.5,"t":29635},{"dx":195,"dy":-120.5,"t":29746},{"dx":195,"dy":-120.5,"t":29853},{"dx":195,"dy":-120.5,"t":29960},{"dx":195,"dy":-120.5,"t":30067},{"dx":195,"dy":-120.5,"t":30178},{"dx":195,"dy":-120.5,"t":30284},{"dx":195,"dy":-120.5,"t":30392},{"dx":195,"dy":-120.5,"t":30504},{"dx":195,"dy":-120.5,"t":30612},{"dx":195,"dy":-120.5,"t":30718}],[{"dx":519,"dy":-323,"t":31729},{"dx":519,"dy":-323,"t":31840},{"dx":519,"dy":-323,"t":31951},{"dx":519,"dy":-323,"t":32061},{"dx":519,"dy":-323,"t":32167},{"dx":519,"dy":-323,"t":32280},{"dx":519,"dy":-323,"t":32390},{"dx":519,"dy":-323,"t":32499},{"dx":519,"dy":-323,"t":32609},{"dx":519,"dy":-323,"t":32716},{"dx":519,"dy":-323,"t":32822},{"dx":519,"dy":-323,"t":32926},{"dx":519,"dy":-323,"t":33039},{"dx":519,"dy":-323,"t":33146},{"dx":519,"dy":-323,"t":33257},{"dx":519,"dy":-323,"t":33375},{"dx":519,"dy":-323,"t":33486},{"dx":519,"dy":-323,"t":33597},{"dx":519,"dy":-323,"t":33704},{"dx":519,"dy":-323,"t":33807}],[{"dx":-489,"dy":-323,"t":34815},{"dx":-489,"dy":-323,"t":34923},{"dx":-489,"dy":-323,"t":35041},{"dx":-489,"dy":-323,"t":35149},{"dx":-489,"dy":-323,"t":35262},{"dx":-489,"dy":-323,"t":35374},{"dx":-489,"dy":-323,"t":35482},{"dx":-489,"dy":-323,"t":35593},{"dx":-489,"dy":-323,"t":35709},{"dx":-489,"dy":-323,"t":35816},{"dx":-489,"dy":-323,"t":35922},{"dx":-489,"dy":-323,"t":36037},{"dx":-489,"dy":-323,"t":36148},{"dx":-489,"dy":-323,"t":36257},{"dx":-489,"dy":-323,"t":36373},{"dx":-489,"dy":-323,"t":36481},{"dx":-489,"dy":-323,"t":36592},{"dx":-489,"dy":-323,"t":36706},{"dx":-489,"dy":-323,"t":36815}],[{"dx":375,"dy":217,"t":37838},{"dx":375,"dy":217,"t":37949},{"dx":375,"dy":217,"t":38060},{"dx":375,"dy":217,"t":38174},{"dx":375,"dy":217,"t":38284},{"dx":375,"dy":217,"t":38392},{"dx":375,"dy":217,"t":38508},{"dx":375,"dy":217,"t":38618},{"dx":375,"dy":217,"t":38729},{"dx":375,"dy":217,"t":38842},{"dx":375,"dy":217,"t":38955},{"dx":375,"dy":217,"t":39067},{"dx":375,"dy":217,"t":39180},{"dx":375,"dy":217,"t":39291},{"dx":375,"dy":217,"t":39402},{"dx":375,"dy":217,"t":39513},{"dx":375,"dy":217,"t":39621},{"dx":375,"dy":217,"t":39731}]],"percent_in_roi":[0,0,0,100,0,0,0,0,0,0,0,0,0],"average_offset":[{"x":375.8,"y":-232.55,"r":1.376816981301443},{"x":195,"y":104.5,"r":0},{"x":-165,"y":-120.5,"r":0},{"x":15,"y":-8,"r":0},{"x":-345,"y":217,"r":0},{"x":-489,"y":307,"r":0},{"x":-345,"y":-233,"r":0},{"x":-165,"y":104.5,"r":0},{"x":519,"y":307,"r":0},{"x":195,"y":-120.5,"r":0},{"x":519,"y":-323,"r":0},{"x":-489,"y":-323,"r":0},{"x":375,"y":217,"r":0}],"samples_per_sec":"9.15","clicks":25,"pattern":"cond","trial_type":"webgazer-validate","trial_index":31,"time_elapsed":369759,"internal_node_id":"0.0-10.0-3.3","validation_points":[[25,75],[37.5,37.5],[62.5,62.5],[50,50],[75,25],[85,15],[75,75],[62.5,37.5],[15,15],[37.5,62.5],[15,85],[85,85],[25,25]],"user_agent":"Mozilla/5.0 (Macintosh; Intel Mac OS X 10_15_7) AppleWebKit/605.1.15 (KHTML, like Gecko) Version/14.0.3 Safari/605.1.15","screen_width_px":1440,"screen_height_px":900},{"rt":1169.9999999999418,"stimulus":"\n      <p>Round complete.</p>\n      <p>You can move a little bit, but please try to return you head to the same general location before continuing.</p>\n    ","response":0,"trial_type":"html-button-response","trial_index":32,"time_elapsed":370930,"internal_node_id":"0.0-10.0-4.3","user_agent":"Mozilla/5.0 (Macintosh; Intel Mac OS X 10_15_7) AppleWebKit/605.1.15 (KHTML, like Gecko) Version/14.0.3 Safari/605.1.15","screen_width_px":1440,"screen_height_px":900},{"trial_type":"webgazer-init-camera","trial_index":33,"time_elapsed":373688,"internal_node_id":"0.0-10.0-5.3","user_agent":"Mozilla/5.0 (Macintosh; Intel Mac OS X 10_15_7) AppleWebKit/605.1.15 (KHTML, like Gecko) Version/14.0.3 Safari/605.1.15","screen_width_px":1440,"screen_height_px":900},{"rt":1054,"stimulus":"\n      <p>Calibration phase next.</p>\n      <p>Click on the dots.</p>\n    ","response":0,"trial_type":"html-button-response","trial_index":34,"time_elapsed":374745,"internal_node_id":"0.0-10.0-0.4","user_agent":"Mozilla/5.0 (Macintosh; Intel Mac OS X 10_15_7) AppleWebKit/605.1.15 (KHTML, like Gecko) Version/14.0.3 Safari/605.1.15","screen_width_px":1440,"screen_height_px":900},{"trial_type":"webgazer-calibrate","trial_index":35,"time_elapsed":413732,"internal_node_id":"0.0-10.0-1.4","user_agent":"Mozilla/5.0 (Macintosh; Intel Mac OS X 10_15_7) AppleWebKit/605.1.15 (KHTML, like Gecko) Version/14.0.3 Safari/605.1.15","screen_width_px":1440,"screen_height_px":900},{"rt":777,"stimulus":"\n      <p>Validation phase next.</p>\n      <p>Look at the dots.</p>\n    ","response":0,"trial_type":"html-button-response","trial_index":36,"time_elapsed":414511,"internal_node_id":"0.0-10.0-2.4","user_agent":"Mozilla/5.0 (Macintosh; Intel Mac OS X 10_15_7) AppleWebKit/605.1.15 (KHTML, like Gecko) Version/14.0.3 Safari/605.1.15","screen_width_px":1440,"screen_height_px":900},{"raw_gaze":[[{"dx":-535,"dy":-311,"t":1100},{"dx":-534,"dy":-313,"t":1209},{"dx":-532,"dy":-315,"t":1319},{"dx":-530,"dy":-316,"t":1433},{"dx":-529,"dy":-317,"t":1540},{"dx":-528,"dy":-318,"t":1652},{"dx":-528,"dy":-318,"t":1768},{"dx":-528,"dy":-318,"t":1874},{"dx":-528,"dy":-318,"t":1982},{"dx":-528,"dy":-317,"t":2093},{"dx":-528,"dy":-317,"t":2202},{"dx":-528,"dy":-317,"t":2312},{"dx":-528,"dy":-317,"t":2420},{"dx":-528,"dy":-317,"t":2525},{"dx":-528,"dy":-317,"t":2633},{"dx":-528,"dy":-317,"t":2744},{"dx":-528,"dy":-317,"t":2853},{"dx":-528,"dy":-317,"t":2962},{"dx":-528,"dy":-317,"t":3074}],[{"dx":-204,"dy":110.5,"t":4106},{"dx":-204,"dy":110.5,"t":4219},{"dx":-204,"dy":110.5,"t":4330},{"dx":-204,"dy":110.5,"t":4442},{"dx":-204,"dy":110.5,"t":4554},{"dx":-204,"dy":110.5,"t":4664},{"dx":-204,"dy":110.5,"t":4772},{"dx":-204,"dy":110.5,"t":4881},{"dx":-204,"dy":110.5,"t":4989},{"dx":-204,"dy":110.5,"t":5097},{"dx":-204,"dy":110.5,"t":5205},{"dx":-204,"dy":110.5,"t":5310},{"dx":-204,"dy":110.5,"t":5417},{"dx":-204,"dy":110.5,"t":5528},{"dx":-204,"dy":110.5,"t":5637},{"dx":-204,"dy":110.5,"t":5743},{"dx":-204,"dy":110.5,"t":5853},{"dx":-204,"dy":110.5,"t":5957},{"dx":-204,"dy":110.5,"t":6065},{"dx":-204,"dy":110.5,"t":6183}],[{"dx":-528,"dy":313,"t":7200},{"dx":-528,"dy":313,"t":7312},{"dx":-528,"dy":313,"t":7419},{"dx":-528,"dy":313,"t":7529},{"dx":-528,"dy":313,"t":7636},{"dx":-528,"dy":313,"t":7745},{"dx":-528,"dy":313,"t":7860},{"dx":-528,"dy":313,"t":7973},{"dx":-528,"dy":313,"t":8082},{"dx":-528,"dy":313,"t":8195},{"dx":-528,"dy":313,"t":8299},{"dx":-528,"dy":313,"t":8408},{"dx":-528,"dy":313,"t":8518},{"dx":-528,"dy":313,"t":8628},{"dx":-528,"dy":313,"t":8733},{"dx":-528,"dy":313,"t":8847},{"dx":-528,"dy":313,"t":8955},{"dx":-528,"dy":313,"t":9064},{"dx":-528,"dy":313,"t":9180},{"dx":-528,"dy":313,"t":9289}],[{"dx":-384,"dy":-227,"t":10304},{"dx":-384,"dy":-227,"t":10409},{"dx":-384,"dy":-227,"t":10515},{"dx":-384,"dy":-227,"t":10627},{"dx":-384,"dy":-227,"t":10736},{"dx":-384,"dy":-227,"t":10843},{"dx":-384,"dy":-227,"t":10951},{"dx":-384,"dy":-227,"t":11057},{"dx":-384,"dy":-227,"t":11166},{"dx":-384,"dy":-227,"t":11278},{"dx":-384,"dy":-227,"t":11385},{"dx":-384,"dy":-227,"t":11495},{"dx":-384,"dy":-227,"t":11610},{"dx":-384,"dy":-227,"t":11718},{"dx":-384,"dy":-227,"t":11828},{"dx":-384,"dy":-227,"t":11941},{"dx":-384,"dy":-227,"t":12051},{"dx":-384,"dy":-227,"t":12159},{"dx":-384,"dy":-227,"t":12276},{"dx":-384,"dy":-227,"t":12384}],[{"dx":336,"dy":223,"t":13392},{"dx":336,"dy":223,"t":13500},{"dx":336,"dy":223,"t":13607},{"dx":336,"dy":223,"t":13712},{"dx":336,"dy":223,"t":13820},{"dx":336,"dy":223,"t":13932},{"dx":336,"dy":223,"t":14045},{"dx":336,"dy":223,"t":14154},{"dx":336,"dy":223,"t":14264},{"dx":336,"dy":223,"t":14378},{"dx":336,"dy":223,"t":14487},{"dx":336,"dy":223,"t":14595},{"dx":336,"dy":223,"t":14708},{"dx":336,"dy":223,"t":14815},{"dx":336,"dy":223,"t":14923},{"dx":336,"dy":223,"t":15040},{"dx":336,"dy":223,"t":15148},{"dx":336,"dy":223,"t":15257},{"dx":336,"dy":223,"t":15375},{"dx":336,"dy":223,"t":15483}],[{"dx":336,"dy":-227,"t":16483},{"dx":336,"dy":-227,"t":16590},{"dx":336,"dy":-227,"t":16705},{"dx":336,"dy":-227,"t":16815},{"dx":336,"dy":-227,"t":16924},{"dx":336,"dy":-227,"t":17037},{"dx":336,"dy":-227,"t":17147},{"dx":336,"dy":-227,"t":17253},{"dx":336,"dy":-227,"t":17367},{"dx":336,"dy":-227,"t":17476},{"dx":336,"dy":-227,"t":17583},{"dx":336,"dy":-227,"t":17707},{"dx":336,"dy":-227,"t":17816},{"dx":336,"dy":-227,"t":17924},{"dx":336,"dy":-227,"t":18038},{"dx":336,"dy":-227,"t":18148},{"dx":336,"dy":-227,"t":18254},{"dx":336,"dy":-227,"t":18365},{"dx":336,"dy":-227,"t":18473},{"dx":336,"dy":-227,"t":18581}],[{"dx":156,"dy":110.5,"t":19592},{"dx":156,"dy":110.5,"t":19701},{"dx":156,"dy":110.5,"t":19819},{"dx":156,"dy":110.5,"t":20092},{"dx":156,"dy":110.5,"t":20196},{"dx":156,"dy":110.5,"t":20302},{"dx":156,"dy":110.5,"t":20405},{"dx":156,"dy":110.5,"t":20510},{"dx":156,"dy":110.5,"t":20620},{"dx":156,"dy":110.5,"t":20723},{"dx":156,"dy":110.5,"t":20829},{"dx":156,"dy":110.5,"t":20938},{"dx":156,"dy":110.5,"t":21043},{"dx":156,"dy":110.5,"t":21147},{"dx":156,"dy":110.5,"t":21254},{"dx":156,"dy":110.5,"t":21359},{"dx":156,"dy":110.5,"t":21462},{"dx":156,"dy":110.5,"t":21567},{"dx":156,"dy":110.5,"t":21679}],[{"dx":480,"dy":-317,"t":22713},{"dx":480,"dy":-317,"t":22821},{"dx":480,"dy":-317,"t":22933},{"dx":480,"dy":-317,"t":23045},{"dx":480,"dy":-317,"t":23151},{"dx":480,"dy":-317,"t":23256},{"dx":480,"dy":-317,"t":23373},{"dx":480,"dy":-317,"t":23480},{"dx":480,"dy":-317,"t":23587},{"dx":480,"dy":-317,"t":23698},{"dx":480,"dy":-317,"t":23806},{"dx":480,"dy":-317,"t":23917},{"dx":480,"dy":-317,"t":24024},{"dx":480,"dy":-317,"t":24134},{"dx":480,"dy":-317,"t":24246},{"dx":480,"dy":-317,"t":24355},{"dx":480,"dy":-317,"t":24465},{"dx":480,"dy":-317,"t":24580},{"dx":480,"dy":-317,"t":24691}],[{"dx":-204,"dy":-114.5,"t":25705},{"dx":-204,"dy":-114.5,"t":25815},{"dx":-204,"dy":-114.5,"t":25920},{"dx":-204,"dy":-114.5,"t":26036},{"dx":-204,"dy":-114.5,"t":26143},{"dx":-204,"dy":-114.5,"t":26253},{"dx":-204,"dy":-114.5,"t":26366},{"dx":-204,"dy":-114.5,"t":26471},{"dx":-204,"dy":-114.5,"t":26578},{"dx":-204,"dy":-114.5,"t":26693},{"dx":-204,"dy":-114.5,"t":26799},{"dx":-204,"dy":-114.5,"t":26906},{"dx":-204,"dy":-114.5,"t":27021},{"dx":-204,"dy":-114.5,"t":27124},{"dx":-204,"dy":-114.5,"t":27232},{"dx":-204,"dy":-114.5,"t":27338},{"dx":-204,"dy":-114.5,"t":27447},{"dx":-204,"dy":-114.5,"t":27552},{"dx":-204,"dy":-114.5,"t":27670},{"dx":-204,"dy":-114.5,"t":27778}],[{"dx":-24,"dy":-2,"t":28790},{"dx":-24,"dy":-2,"t":28899},{"dx":-24,"dy":-2,"t":29011},{"dx":-24,"dy":-2,"t":29120},{"dx":-24,"dy":-2,"t":29228},{"dx":-24,"dy":-2,"t":29337},{"dx":-24,"dy":-2,"t":29445},{"dx":-24,"dy":-2,"t":29551},{"dx":-24,"dy":-2,"t":29659},{"dx":-24,"dy":-2,"t":29773},{"dx":-24,"dy":-2,"t":29880},{"dx":-24,"dy":-2,"t":29988},{"dx":-24,"dy":-2,"t":30101},{"dx":-24,"dy":-2,"t":30211},{"dx":-24,"dy":-2,"t":30320},{"dx":-24,"dy":-2,"t":30434},{"dx":-24,"dy":-2,"t":30542},{"dx":-24,"dy":-2,"t":30651},{"dx":-24,"dy":-2,"t":30765},{"dx":-24,"dy":-2,"t":30875}],[{"dx":-384,"dy":223,"t":31879},{"dx":-384,"dy":223,"t":31991},{"dx":-384,"dy":223,"t":32100},{"dx":-384,"dy":223,"t":32211},{"dx":-384,"dy":223,"t":32319},{"dx":-384,"dy":223,"t":32429},{"dx":-384,"dy":223,"t":32542},{"dx":-384,"dy":223,"t":32652},{"dx":-384,"dy":223,"t":32755},{"dx":-384,"dy":223,"t":32870},{"dx":-384,"dy":223,"t":32977},{"dx":-384,"dy":223,"t":33086},{"dx":-384,"dy":223,"t":33203},{"dx":-384,"dy":223,"t":33310},{"dx":-384,"dy":223,"t":33436},{"dx":-384,"dy":223,"t":33545},{"dx":-384,"dy":223,"t":33653},{"dx":-384,"dy":223,"t":33771},{"dx":-384,"dy":223,"t":33878}],[{"dx":156,"dy":-114.5,"t":34879},{"dx":156,"dy":-114.5,"t":34995},{"dx":156,"dy":-114.5,"t":35111},{"dx":156,"dy":-114.5,"t":35232},{"dx":156,"dy":-114.5,"t":35347},{"dx":156,"dy":-114.5,"t":35461},{"dx":156,"dy":-114.5,"t":35579},{"dx":156,"dy":-114.5,"t":35695},{"dx":156,"dy":-114.5,"t":35811},{"dx":156,"dy":-114.5,"t":35929},{"dx":156,"dy":-114.5,"t":36044},{"dx":156,"dy":-114.5,"t":36159},{"dx":156,"dy":-114.5,"t":36280},{"dx":156,"dy":-114.5,"t":36397},{"dx":156,"dy":-114.5,"t":36511},{"dx":156,"dy":-114.5,"t":36629},{"dx":156,"dy":-114.5,"t":36742},{"dx":156,"dy":-114.5,"t":36858},{"dx":156,"dy":-114.5,"t":36975}],[{"dx":480,"dy":313,"t":37977},{"dx":480,"dy":313,"t":38099},{"dx":480,"dy":313,"t":38209},{"dx":480,"dy":313,"t":38322},{"dx":480,"dy":313,"t":38438},{"dx":480,"dy":313,"t":38553},{"dx":480,"dy":313,"t":38670},{"dx":480,"dy":313,"t":38785},{"dx":480,"dy":313,"t":38907},{"dx":480,"dy":313,"t":39023},{"dx":480,"dy":313,"t":39132},{"dx":480,"dy":313,"t":39250},{"dx":480,"dy":313,"t":39366},{"dx":480,"dy":313,"t":39480},{"dx":480,"dy":313,"t":39603},{"dx":480,"dy":313,"t":39715},{"dx":480,"dy":313,"t":39833},{"dx":480,"dy":313,"t":39949}]],"percent_in_roi":[0,0,0,0,0,0,0,0,0,100,0,0,0],"average_offset":[{"x":-529.0526315789474,"y":-316.5263157894737,"r":1.1543006420769322},{"x":-204,"y":110.5,"r":0},{"x":-528,"y":313,"r":0},{"x":-384,"y":-227,"r":0},{"x":336,"y":223,"r":0},{"x":336,"y":-227,"r":0},{"x":156,"y":110.5,"r":0},{"x":480,"y":-317,"r":0},{"x":-204,"y":-114.5,"r":0},{"x":-24,"y":-2,"r":0},{"x":-384,"y":223,"r":0},{"x":156,"y":-114.5,"r":0},{"x":480,"y":313,"r":0}],"samples_per_sec":"8.98","clicks":25,"pattern":"spread","trial_type":"webgazer-validate","trial_index":37,"time_elapsed":455523,"internal_node_id":"0.0-10.0-3.4","validation_points":[[85,85],[62.5,37.5],[85,15],[75,75],[25,25],[25,75],[37.5,37.5],[15,85],[62.5,62.5],[50,50],[75,25],[37.5,62.5],[15,15]],"user_agent":"Mozilla/5.0 (Macintosh; Intel Mac OS X 10_15_7) AppleWebKit/605.1.15 (KHTML, like Gecko) Version/14.0.3 Safari/605.1.15","screen_width_px":1440,"screen_height_px":900},{"rt":2512,"stimulus":"\n      <p>Round complete.</p>\n      <p>You can move a little bit, but please try to return you head to the same general location before continuing.</p>\n    ","response":0,"trial_type":"html-button-response","trial_index":38,"time_elapsed":458037,"internal_node_id":"0.0-10.0-4.4","user_agent":"Mozilla/5.0 (Macintosh; Intel Mac OS X 10_15_7) AppleWebKit/605.1.15 (KHTML, like Gecko) Version/14.0.3 Safari/605.1.15","screen_width_px":1440,"screen_height_px":900},{"trial_type":"webgazer-init-camera","trial_index":39,"time_elapsed":460465,"internal_node_id":"0.0-10.0-5.4","user_agent":"Mozilla/5.0 (Macintosh; Intel Mac OS X 10_15_7) AppleWebKit/605.1.15 (KHTML, like Gecko) Version/14.0.3 Safari/605.1.15","screen_width_px":1440,"screen_height_px":900},{"rt":830,"stimulus":"\n      <p>Calibration phase next.</p>\n      <p>Click on the dots.</p>\n    ","response":0,"trial_type":"html-button-response","trial_index":40,"time_elapsed":461298,"internal_node_id":"0.0-10.0-0.5","user_agent":"Mozilla/5.0 (Macintosh; Intel Mac OS X 10_15_7) AppleWebKit/605.1.15 (KHTML, like Gecko) Version/14.0.3 Safari/605.1.15","screen_width_px":1440,"screen_height_px":900},{"trial_type":"webgazer-calibrate","trial_index":41,"time_elapsed":471444,"internal_node_id":"0.0-10.0-1.5","user_agent":"Mozilla/5.0 (Macintosh; Intel Mac OS X 10_15_7) AppleWebKit/605.1.15 (KHTML, like Gecko) Version/14.0.3 Safari/605.1.15","screen_width_px":1440,"screen_height_px":900},{"rt":803,"stimulus":"\n      <p>Validation phase next.</p>\n      <p>Look at the dots.</p>\n    ","response":0,"trial_type":"html-button-response","trial_index":42,"time_elapsed":472248,"internal_node_id":"0.0-10.0-2.5","user_agent":"Mozilla/5.0 (Macintosh; Intel Mac OS X 10_15_7) AppleWebKit/605.1.15 (KHTML, like Gecko) Version/14.0.3 Safari/605.1.15","screen_width_px":1440,"screen_height_px":900},{"raw_gaze":[[{"dx":-488,"dy":-325,"t":1063},{"dx":-493,"dy":-321,"t":1174},{"dx":-497,"dy":-319,"t":1283},{"dx":-500,"dy":-317,"t":1394},{"dx":-503,"dy":-315,"t":1506},{"dx":-504,"dy":-315,"t":1623},{"dx":-505,"dy":-314,"t":1733},{"dx":-506,"dy":-314,"t":1852},{"dx":-506,"dy":-314,"t":1964},{"dx":-506,"dy":-314,"t":2076},{"dx":-506,"dy":-315,"t":2194},{"dx":-506,"dy":-315,"t":2301},{"dx":-505,"dy":-315,"t":2410},{"dx":-505,"dy":-315,"t":2526},{"dx":-505,"dy":-315,"t":2634},{"dx":-505,"dy":-315,"t":2745},{"dx":-505,"dy":-315,"t":2862},{"dx":-505,"dy":-315,"t":2973},{"dx":-505,"dy":-315,"t":3086}],[{"dx":503,"dy":315,"t":4115},{"dx":503,"dy":315,"t":4223},{"dx":503,"dy":315,"t":4339},{"dx":503,"dy":315,"t":4450},{"dx":503,"dy":315,"t":4563},{"dx":503,"dy":315,"t":4684},{"dx":503,"dy":315,"t":4795},{"dx":503,"dy":315,"t":4910},{"dx":503,"dy":315,"t":5021},{"dx":503,"dy":315,"t":5130},{"dx":503,"dy":315,"t":5242},{"dx":503,"dy":315,"t":5358},{"dx":503,"dy":315,"t":5468},{"dx":503,"dy":315,"t":5581},{"dx":503,"dy":315,"t":5698},{"dx":503,"dy":315,"t":5810},{"dx":503,"dy":315,"t":5923},{"dx":503,"dy":315,"t":6037},{"dx":503,"dy":315,"t":6154}],[{"dx":179,"dy":-112.5,"t":7197},{"dx":179,"dy":-112.5,"t":7317},{"dx":179,"dy":-112.5,"t":7428},{"dx":179,"dy":-112.5,"t":7540},{"dx":179,"dy":-112.5,"t":7656},{"dx":179,"dy":-112.5,"t":7765},{"dx":179,"dy":-112.5,"t":7878},{"dx":179,"dy":-112.5,"t":7994},{"dx":179,"dy":-112.5,"t":8103},{"dx":179,"dy":-112.5,"t":8217},{"dx":179,"dy":-112.5,"t":8332},{"dx":179,"dy":-112.5,"t":8442},{"dx":179,"dy":-112.5,"t":8553},{"dx":179,"dy":-112.5,"t":8663},{"dx":179,"dy":-112.5,"t":8767},{"dx":179,"dy":-112.5,"t":8874},{"dx":179,"dy":-112.5,"t":8976},{"dx":179,"dy":-112.5,"t":9084},{"dx":179,"dy":-112.5,"t":9186}],[{"dx":-505,"dy":315,"t":10199},{"dx":-505,"dy":315,"t":10304},{"dx":-505,"dy":315,"t":10420},{"dx":-505,"dy":315,"t":10525},{"dx":-505,"dy":315,"t":10632},{"dx":-505,"dy":315,"t":10743},{"dx":-505,"dy":315,"t":10846},{"dx":-505,"dy":315,"t":10951},{"dx":-505,"dy":315,"t":11056},{"dx":-505,"dy":315,"t":11167},{"dx":-505,"dy":315,"t":11273},{"dx":-505,"dy":315,"t":11379},{"dx":-505,"dy":315,"t":11491},{"dx":-505,"dy":315,"t":11601},{"dx":-505,"dy":315,"t":11713},{"dx":-505,"dy":315,"t":11828},{"dx":-505,"dy":315,"t":11935},{"dx":-505,"dy":315,"t":12047},{"dx":-505,"dy":315,"t":12163},{"dx":-505,"dy":315,"t":12276}],[{"dx":-361,"dy":225,"t":13328},{"dx":-361,"dy":225,"t":13440},{"dx":-361,"dy":225,"t":13555},{"dx":-361,"dy":225,"t":13667},{"dx":-361,"dy":225,"t":13778},{"dx":-361,"dy":225,"t":13886},{"dx":-361,"dy":225,"t":13993},{"dx":-361,"dy":225,"t":14094},{"dx":-361,"dy":225,"t":14198},{"dx":-361,"dy":225,"t":14308},{"dx":-361,"dy":225,"t":14413},{"dx":-361,"dy":225,"t":14517},{"dx":-361,"dy":225,"t":14622},{"dx":-361,"dy":225,"t":14730},{"dx":-361,"dy":225,"t":14833},{"dx":-361,"dy":225,"t":14935},{"dx":-361,"dy":225,"t":15047},{"dx":-361,"dy":225,"t":15152},{"dx":-361,"dy":225,"t":15257},{"dx":-361,"dy":225,"t":15366}],[{"dx":-361,"dy":-225,"t":16428},{"dx":-361,"dy":-225,"t":16539},{"dx":-361,"dy":-225,"t":16652},{"dx":-361,"dy":-225,"t":16769},{"dx":-361,"dy":-225,"t":16883},{"dx":-361,"dy":-225,"t":16992},{"dx":-361,"dy":-225,"t":17105},{"dx":-361,"dy":-225,"t":17216},{"dx":-361,"dy":-225,"t":17325},{"dx":-361,"dy":-225,"t":17436},{"dx":-361,"dy":-225,"t":17553},{"dx":-361,"dy":-225,"t":17661},{"dx":-361,"dy":-225,"t":17772},{"dx":-361,"dy":-225,"t":17890},{"dx":-361,"dy":-225,"t":18002},{"dx":-361,"dy":-225,"t":18113},{"dx":-361,"dy":-225,"t":18228},{"dx":-361,"dy":-225,"t":18336},{"dx":-361,"dy":-225,"t":18448}],[{"dx":-181,"dy":112.5,"t":19490},{"dx":-181,"dy":112.5,"t":19598},{"dx":-181,"dy":112.5,"t":19718},{"dx":-181,"dy":112.5,"t":19829},{"dx":-181,"dy":112.5,"t":19946},{"dx":-181,"dy":112.5,"t":20060},{"dx":-181,"dy":112.5,"t":20173},{"dx":-181,"dy":112.5,"t":20285},{"dx":-181,"dy":112.5,"t":20399},{"dx":-181,"dy":112.5,"t":20514},{"dx":-181,"dy":112.5,"t":20625},{"dx":-181,"dy":112.5,"t":20742},{"dx":-181,"dy":112.5,"t":20854},{"dx":-181,"dy":112.5,"t":20965},{"dx":-181,"dy":112.5,"t":21082},{"dx":-181,"dy":112.5,"t":21197},{"dx":-181,"dy":112.5,"t":21309},{"dx":-181,"dy":112.5,"t":21419},{"dx":-181,"dy":112.5,"t":21535}],[{"dx":359,"dy":-225,"t":22583},{"dx":359,"dy":-225,"t":22697},{"dx":359,"dy":-225,"t":22811},{"dx":359,"dy":-225,"t":22923},{"dx":359,"dy":-225,"t":23034},{"dx":359,"dy":-225,"t":23141},{"dx":359,"dy":-225,"t":23249},{"dx":359,"dy":-225,"t":23357},{"dx":359,"dy":-225,"t":23462},{"dx":359,"dy":-225,"t":23566},{"dx":359,"dy":-225,"t":23677},{"dx":359,"dy":-225,"t":23781},{"dx":359,"dy":-225,"t":23882},{"dx":359,"dy":-225,"t":23993},{"dx":359,"dy":-225,"t":24104},{"dx":359,"dy":-225,"t":24213},{"dx":359,"dy":-225,"t":24325},{"dx":359,"dy":-225,"t":24438},{"dx":359,"dy":-225,"t":24551}],[{"dx":179,"dy":112.5,"t":25582},{"dx":179,"dy":112.5,"t":25685},{"dx":179,"dy":112.5,"t":25799},{"dx":179,"dy":112.5,"t":25910},{"dx":179,"dy":112.5,"t":26022},{"dx":179,"dy":112.5,"t":26136},{"dx":179,"dy":112.5,"t":26248},{"dx":179,"dy":112.5,"t":26357},{"dx":179,"dy":112.5,"t":26474},{"dx":179,"dy":112.5,"t":26587},{"dx":179,"dy":112.5,"t":26696},{"dx":179,"dy":112.5,"t":26812},{"dx":179,"dy":112.5,"t":26923},{"dx":179,"dy":112.5,"t":27035},{"dx":179,"dy":112.5,"t":27150},{"dx":179,"dy":112.5,"t":27267},{"dx":179,"dy":112.5,"t":27383},{"dx":179,"dy":112.5,"t":27496},{"dx":179,"dy":112.5,"t":27610}],[{"dx":-1,"dy":0,"t":28655},{"dx":-1,"dy":0,"t":28768},{"dx":-1,"dy":0,"t":28882},{"dx":-1,"dy":0,"t":28996},{"dx":-1,"dy":0,"t":29106},{"dx":-1,"dy":0,"t":29225},{"dx":-1,"dy":0,"t":29337},{"dx":-1,"dy":0,"t":29449},{"dx":-1,"dy":0,"t":29567},{"dx":-1,"dy":0,"t":29680},{"dx":-1,"dy":0,"t":29790},{"dx":-1,"dy":0,"t":29906},{"dx":-1,"dy":0,"t":30016},{"dx":-1,"dy":0,"t":30126},{"dx":-1,"dy":0,"t":30247},{"dx":-1,"dy":0,"t":30359},{"dx":-1,"dy":0,"t":30476},{"dx":-1,"dy":0,"t":30588},{"dx":-1,"dy":0,"t":30701}],[{"dx":359,"dy":225,"t":31744},{"dx":359,"dy":225,"t":31853},{"dx":359,"dy":225,"t":31962},{"dx":359,"dy":225,"t":32079},{"dx":359,"dy":225,"t":32189},{"dx":359,"dy":225,"t":32304},{"dx":359,"dy":225,"t":32422},{"dx":359,"dy":225,"t":32535},{"dx":359,"dy":225,"t":32646},{"dx":359,"dy":225,"t":32760},{"dx":359,"dy":225,"t":32872},{"dx":359,"dy":225,"t":32983},{"dx":359,"dy":225,"t":33101},{"dx":359,"dy":225,"t":33215},{"dx":359,"dy":225,"t":33325},{"dx":359,"dy":225,"t":33443},{"dx":359,"dy":225,"t":33553},{"dx":359,"dy":225,"t":33661},{"dx":359,"dy":225,"t":33779}],[{"dx":-181,"dy":-112.5,"t":34809},{"dx":-181,"dy":-112.5,"t":34920},{"dx":-181,"dy":-112.5,"t":35034},{"dx":-181,"dy":-112.5,"t":35147},{"dx":-181,"dy":-112.5,"t":35265},{"dx":-181,"dy":-112.5,"t":35378},{"dx":-181,"dy":-112.5,"t":35488},{"dx":-181,"dy":-112.5,"t":35605},{"dx":-181,"dy":-112.5,"t":35713},{"dx":-181,"dy":-112.5,"t":35824},{"dx":-181,"dy":-112.5,"t":35937},{"dx":-181,"dy":-112.5,"t":36043},{"dx":-181,"dy":-112.5,"t":36148},{"dx":-181,"dy":-112.5,"t":36256},{"dx":-181,"dy":-112.5,"t":36359},{"dx":-181,"dy":-112.5,"t":36460},{"dx":-181,"dy":-112.5,"t":36567},{"dx":-181,"dy":-112.5,"t":36682},{"dx":-181,"dy":-112.5,"t":36791}],[{"dx":503,"dy":-315,"t":37824},{"dx":503,"dy":-315,"t":37933},{"dx":503,"dy":-315,"t":38044},{"dx":503,"dy":-315,"t":38149},{"dx":503,"dy":-315,"t":38256},{"dx":503,"dy":-315,"t":38368},{"dx":503,"dy":-315,"t":38481},{"dx":503,"dy":-315,"t":38590},{"dx":503,"dy":-315,"t":38712},{"dx":503,"dy":-315,"t":38823},{"dx":503,"dy":-315,"t":38934},{"dx":503,"dy":-315,"t":39045},{"dx":503,"dy":-315,"t":39154},{"dx":503,"dy":-315,"t":39266},{"dx":503,"dy":-315,"t":39378},{"dx":503,"dy":-315,"t":39495},{"dx":503,"dy":-315,"t":39606},{"dx":503,"dy":-315,"t":39715}]],"percent_in_roi":[0,0,0,0,0,0,0,0,0,100,0,0,0],"average_offset":[{"x":-502.89473684210526,"y":-315.94736842105266,"r":2.867817415963237},{"x":503,"y":315,"r":0},{"x":179,"y":-112.5,"r":0},{"x":-505,"y":315,"r":0},{"x":-361,"y":225,"r":0},{"x":-361,"y":-225,"r":0},{"x":-181,"y":112.5,"r":0},{"x":359,"y":-225,"r":0},{"x":179,"y":112.5,"r":0},{"x":-1,"y":0,"r":0},{"x":359,"y":225,"r":0},{"x":-181,"y":-112.5,"r":0},{"x":503,"y":-315,"r":0}],"samples_per_sec":"8.97","clicks":5,"pattern":"spread","trial_type":"webgazer-validate","trial_index":43,"time_elapsed":513031,"internal_node_id":"0.0-10.0-3.5","validation_points":[[85,85],[15,15],[37.5,62.5],[85,15],[75,25],[75,75],[62.5,37.5],[25,75],[37.5,37.5],[50,50],[25,25],[62.5,62.5],[15,85]],"user_agent":"Mozilla/5.0 (Macintosh; Intel Mac OS X 10_15_7) AppleWebKit/605.1.15 (KHTML, like Gecko) Version/14.0.3 Safari/605.1.15","screen_width_px":1440,"screen_height_px":900},{"rt":1967.9999999999418,"stimulus":"\n      <p>Round complete.</p>\n      <p>You can move a little bit, but please try to return you head to the same general location before continuing.</p>\n    ","response":0,"trial_type":"html-button-response","trial_index":44,"time_elapsed":515000,"internal_node_id":"0.0-10.0-4.5","user_agent":"Mozilla/5.0 (Macintosh; Intel Mac OS X 10_15_7) AppleWebKit/605.1.15 (KHTML, like Gecko) Version/14.0.3 Safari/605.1.15","screen_width_px":1440,"screen_height_px":900},{"trial_type":"webgazer-init-camera","trial_index":45,"time_elapsed":517695,"internal_node_id":"0.0-10.0-5.5","user_agent":"Mozilla/5.0 (Macintosh; Intel Mac OS X 10_15_7) AppleWebKit/605.1.15 (KHTML, like Gecko) Version/14.0.3 Safari/605.1.15","screen_width_px":1440,"screen_height_px":900},{"rt":1121.0000000000582,"stimulus":"\n      <p>Calibration phase next.</p>\n      <p>Click on the dots.</p>\n    ","response":0,"trial_type":"html-button-response","trial_index":46,"time_elapsed":518819,"internal_node_id":"0.0-10.0-0.6","user_agent":"Mozilla/5.0 (Macintosh; Intel Mac OS X 10_15_7) AppleWebKit/605.1.15 (KHTML, like Gecko) Version/14.0.3 Safari/605.1.15","screen_width_px":1440,"screen_height_px":900},{"trial_type":"webgazer-calibrate","trial_index":47,"time_elapsed":546371,"internal_node_id":"0.0-10.0-1.6","user_agent":"Mozilla/5.0 (Macintosh; Intel Mac OS X 10_15_7) AppleWebKit/605.1.15 (KHTML, like Gecko) Version/14.0.3 Safari/605.1.15","screen_width_px":1440,"screen_height_px":900},{"rt":164306.99999999988,"stimulus":"\n      <p>Validation phase next.</p>\n      <p>Look at the dots.</p>\n    ","response":0,"trial_type":"html-button-response","trial_index":48,"time_elapsed":710684,"internal_node_id":"0.0-10.0-2.6","user_agent":"Mozilla/5.0 (Macintosh; Intel Mac OS X 10_15_7) AppleWebKit/605.1.15 (KHTML, like Gecko) Version/14.0.3 Safari/605.1.15","screen_width_px":1440,"screen_height_px":900},{"raw_gaze":[[{"dx":275,"dy":-150.5,"t":1097},{"dx":272,"dy":-148.5,"t":1219},{"dx":269,"dy":-147.5,"t":1338},{"dx":267,"dy":-146.5,"t":1448},{"dx":265,"dy":-145.5,"t":1565},{"dx":264,"dy":-144.5,"t":1682},{"dx":264,"dy":-144.5,"t":1795},{"dx":263,"dy":-144.5,"t":1912},{"dx":263,"dy":-144.5,"t":2021},{"dx":263,"dy":-144.5,"t":2135},{"dx":263,"dy":-144.5,"t":2254},{"dx":264,"dy":-144.5,"t":2366},{"dx":264,"dy":-144.5,"t":2480},{"dx":264,"dy":-144.5,"t":2599},{"dx":264,"dy":-144.5,"t":2713},{"dx":264,"dy":-144.5,"t":2830},{"dx":264,"dy":-144.5,"t":2945},{"dx":264,"dy":-144.5,"t":3056}],[{"dx":444,"dy":193,"t":4063},{"dx":444,"dy":193,"t":4165},{"dx":444,"dy":193,"t":4265},{"dx":444,"dy":193,"t":4373},{"dx":444,"dy":193,"t":4484},{"dx":444,"dy":193,"t":4592},{"dx":444,"dy":193,"t":4706},{"dx":444,"dy":193,"t":4809},{"dx":444,"dy":193,"t":4925},{"dx":444,"dy":193,"t":5035},{"dx":444,"dy":193,"t":5146},{"dx":444,"dy":193,"t":5259},{"dx":444,"dy":193,"t":5371},{"dx":444,"dy":193,"t":5482},{"dx":444,"dy":193,"t":5594},{"dx":444,"dy":193,"t":5709},{"dx":444,"dy":193,"t":5823},{"dx":444,"dy":193,"t":5936},{"dx":444,"dy":193,"t":6048},{"dx":444,"dy":193,"t":6161}],[{"dx":588,"dy":-347,"t":7176},{"dx":588,"dy":-347,"t":7284},{"dx":588,"dy":-347,"t":7403},{"dx":588,"dy":-347,"t":7519},{"dx":588,"dy":-347,"t":7628},{"dx":588,"dy":-347,"t":7746},{"dx":588,"dy":-347,"t":7859},{"dx":588,"dy":-347,"t":7967},{"dx":588,"dy":-347,"t":8079},{"dx":588,"dy":-347,"t":8189},{"dx":588,"dy":-347,"t":8299},{"dx":588,"dy":-347,"t":8418},{"dx":588,"dy":-347,"t":8541},{"dx":588,"dy":-347,"t":8664},{"dx":588,"dy":-347,"t":8787},{"dx":588,"dy":-347,"t":8902},{"dx":588,"dy":-347,"t":9024},{"dx":588,"dy":-347,"t":9140},{"dx":588,"dy":-347,"t":9260}],[{"dx":-420,"dy":-347,"t":10303},{"dx":-420,"dy":-347,"t":10421},{"dx":-420,"dy":-347,"t":10536},{"dx":-420,"dy":-347,"t":10660},{"dx":-420,"dy":-347,"t":10773},{"dx":-420,"dy":-347,"t":10891},{"dx":-420,"dy":-347,"t":11008},{"dx":-420,"dy":-347,"t":11130},{"dx":-420,"dy":-347,"t":11245},{"dx":-420,"dy":-347,"t":11367},{"dx":-420,"dy":-347,"t":11486},{"dx":-420,"dy":-347,"t":11605},{"dx":-420,"dy":-347,"t":11733},{"dx":-420,"dy":-347,"t":11849},{"dx":-420,"dy":-347,"t":11966},{"dx":-420,"dy":-347,"t":12089},{"dx":-420,"dy":-347,"t":12209},{"dx":-420,"dy":-347,"t":12326}],[{"dx":444,"dy":-257,"t":13373},{"dx":444,"dy":-257,"t":13497},{"dx":444,"dy":-257,"t":13614},{"dx":444,"dy":-257,"t":13732},{"dx":444,"dy":-257,"t":13861},{"dx":444,"dy":-257,"t":13987},{"dx":444,"dy":-257,"t":14112},{"dx":444,"dy":-257,"t":14230},{"dx":444,"dy":-257,"t":14342},{"dx":444,"dy":-257,"t":14464},{"dx":444,"dy":-257,"t":14576},{"dx":444,"dy":-257,"t":14689},{"dx":444,"dy":-257,"t":14801},{"dx":444,"dy":-257,"t":14901},{"dx":444,"dy":-257,"t":15006},{"dx":444,"dy":-257,"t":15117},{"dx":444,"dy":-257,"t":15232},{"dx":444,"dy":-257,"t":15353}],[{"dx":-276,"dy":-257,"t":16393},{"dx":-276,"dy":-257,"t":16506},{"dx":-276,"dy":-257,"t":16628},{"dx":-276,"dy":-257,"t":16752},{"dx":-276,"dy":-257,"t":16868},{"dx":-276,"dy":-257,"t":16983},{"dx":-276,"dy":-257,"t":17105},{"dx":-276,"dy":-257,"t":17221},{"dx":-276,"dy":-257,"t":17336},{"dx":-276,"dy":-257,"t":17455},{"dx":-276,"dy":-257,"t":17569},{"dx":-276,"dy":-257,"t":17684},{"dx":-276,"dy":-257,"t":17806},{"dx":-276,"dy":-257,"t":17926},{"dx":-276,"dy":-257,"t":18049},{"dx":-276,"dy":-257,"t":18169},{"dx":-276,"dy":-257,"t":18287},{"dx":-276,"dy":-257,"t":18397}],[{"dx":-276,"dy":193,"t":19435},{"dx":-276,"dy":193,"t":19556},{"dx":-276,"dy":193,"t":19672},{"dx":-276,"dy":193,"t":19792},{"dx":-276,"dy":193,"t":19911},{"dx":-276,"dy":193,"t":20031},{"dx":-276,"dy":193,"t":20149},{"dx":-276,"dy":193,"t":20272},{"dx":-276,"dy":193,"t":20392},{"dx":-276,"dy":193,"t":20510},{"dx":-276,"dy":193,"t":20627},{"dx":-276,"dy":193,"t":20755},{"dx":-276,"dy":193,"t":20870},{"dx":-276,"dy":193,"t":20987},{"dx":-276,"dy":193,"t":21109},{"dx":-276,"dy":193,"t":21230},{"dx":-276,"dy":193,"t":21349},{"dx":-276,"dy":193,"t":21470}],[{"dx":-96,"dy":80.5,"t":22512},{"dx":-96,"dy":80.5,"t":22640},{"dx":-96,"dy":80.5,"t":22759},{"dx":-96,"dy":80.5,"t":22878},{"dx":-96,"dy":80.5,"t":23004},{"dx":-96,"dy":80.5,"t":23126},{"dx":-96,"dy":80.5,"t":23245},{"dx":-96,"dy":80.5,"t":23361},{"dx":-96,"dy":80.5,"t":23484},{"dx":-96,"dy":80.5,"t":23597},{"dx":-96,"dy":80.5,"t":23713},{"dx":-96,"dy":80.5,"t":23837},{"dx":-96,"dy":80.5,"t":23958},{"dx":-96,"dy":80.5,"t":24079},{"dx":-96,"dy":80.5,"t":24199},{"dx":-96,"dy":80.5,"t":24316},{"dx":-96,"dy":80.5,"t":24426},{"dx":-96,"dy":80.5,"t":24549}],[{"dx":264,"dy":80.5,"t":25582},{"dx":264,"dy":80.5,"t":25704},{"dx":264,"dy":80.5,"t":25824},{"dx":264,"dy":80.5,"t":25944},{"dx":264,"dy":80.5,"t":26066},{"dx":264,"dy":80.5,"t":26187},{"dx":264,"dy":80.5,"t":26302},{"dx":264,"dy":80.5,"t":26422},{"dx":264,"dy":80.5,"t":26545},{"dx":264,"dy":80.5,"t":26658},{"dx":264,"dy":80.5,"t":26769},{"dx":264,"dy":80.5,"t":26892},{"dx":264,"dy":80.5,"t":27007},{"dx":264,"dy":80.5,"t":27127},{"dx":264,"dy":80.5,"t":27241},{"dx":264,"dy":80.5,"t":27351},{"dx":264,"dy":80.5,"t":27459},{"dx":264,"dy":80.5,"t":27568}],[{"dx":-96,"dy":-144.5,"t":28615},{"dx":-96,"dy":-144.5,"t":28732},{"dx":-96,"dy":-144.5,"t":28857},{"dx":-96,"dy":-144.5,"t":28974},{"dx":-96,"dy":-144.5,"t":29091},{"dx":-96,"dy":-144.5,"t":29213},{"dx":-96,"dy":-144.5,"t":29328},{"dx":-96,"dy":-144.5,"t":29447},{"dx":-96,"dy":-144.5,"t":29564},{"dx":-96,"dy":-144.5,"t":29683},{"dx":-96,"dy":-144.5,"t":29798},{"dx":-96,"dy":-144.5,"t":29922},{"dx":-96,"dy":-144.5,"t":30038},{"dx":-96,"dy":-144.5,"t":30157},{"dx":-96,"dy":-144.5,"t":30275},{"dx":-96,"dy":-144.5,"t":30389},{"dx":-96,"dy":-144.5,"t":30502},{"dx":-96,"dy":-144.5,"t":30627}],[{"dx":84,"dy":-32,"t":31664},{"dx":84,"dy":-32,"t":31786},{"dx":84,"dy":-32,"t":31905},{"dx":84,"dy":-32,"t":32022},{"dx":84,"dy":-32,"t":32148},{"dx":84,"dy":-32,"t":32266},{"dx":84,"dy":-32,"t":32382},{"dx":84,"dy":-32,"t":32501},{"dx":84,"dy":-32,"t":32620},{"dx":84,"dy":-32,"t":32738},{"dx":84,"dy":-32,"t":32862},{"dx":84,"dy":-32,"t":32988},{"dx":84,"dy":-32,"t":33111},{"dx":84,"dy":-32,"t":33231},{"dx":84,"dy":-32,"t":33357},{"dx":84,"dy":-32,"t":33473},{"dx":84,"dy":-32,"t":33588},{"dx":84,"dy":-32,"t":33715}],[{"dx":588,"dy":283,"t":34711},{"dx":588,"dy":283,"t":34823},{"dx":588,"dy":283,"t":34939},{"dx":588,"dy":283,"t":35064},{"dx":588,"dy":283,"t":35184},{"dx":588,"dy":283,"t":35301},{"dx":588,"dy":283,"t":35426},{"dx":588,"dy":283,"t":35555},{"dx":588,"dy":283,"t":35670},{"dx":588,"dy":283,"t":35793},{"dx":588,"dy":283,"t":35907},{"dx":588,"dy":283,"t":36018},{"dx":588,"dy":283,"t":36135},{"dx":588,"dy":283,"t":36248},{"dx":588,"dy":283,"t":36356},{"dx":588,"dy":283,"t":36471},{"dx":588,"dy":283,"t":36579},{"dx":588,"dy":283,"t":36689},{"dx":588,"dy":283,"t":36796}],[{"dx":-420,"dy":283,"t":37840},{"dx":-420,"dy":283,"t":37947},{"dx":-420,"dy":283,"t":38049},{"dx":-420,"dy":283,"t":38153},{"dx":-420,"dy":283,"t":38262},{"dx":-420,"dy":283,"t":38376},{"dx":-420,"dy":283,"t":38482},{"dx":-420,"dy":283,"t":38588},{"dx":-420,"dy":283,"t":38692},{"dx":-420,"dy":283,"t":38799},{"dx":-420,"dy":283,"t":38918},{"dx":-420,"dy":283,"t":39034},{"dx":-420,"dy":283,"t":39143},{"dx":-420,"dy":283,"t":39264},{"dx":-420,"dy":283,"t":39386},{"dx":-420,"dy":283,"t":39508},{"dx":-420,"dy":283,"t":39633},{"dx":-420,"dy":283,"t":39759}]],"percent_in_roi":[0,0,0,0,0,0,0,100,0,0,100,0,0],"average_offset":[{"x":265.3333333333333,"y":-145.38888888888889,"r":2.4037008503093},{"x":444,"y":193,"r":0},{"x":588,"y":-347,"r":0},{"x":-420,"y":-347,"r":0},{"x":444,"y":-257,"r":0},{"x":-276,"y":-257,"r":0},{"x":-276,"y":193,"r":0},{"x":-96,"y":80.5,"r":0},{"x":264,"y":80.5,"r":0},{"x":-96,"y":-144.5,"r":0},{"x":84,"y":-32,"r":0},{"x":588,"y":283,"r":0},{"x":-420,"y":283,"r":0}],"samples_per_sec":"8.56","clicks":15,"pattern":"spread","trial_type":"webgazer-validate","trial_index":49,"time_elapsed":751508,"internal_node_id":"0.0-10.0-3.6","validation_points":[[37.5,62.5],[25,25],[15,85],[85,85],[25,75],[75,75],[75,25],[62.5,37.5],[37.5,37.5],[62.5,62.5],[50,50],[15,15],[85,15]],"user_agent":"Mozilla/5.0 (Macintosh; Intel Mac OS X 10_15_7) AppleWebKit/605.1.15 (KHTML, like Gecko) Version/14.0.3 Safari/605.1.15","screen_width_px":1440,"screen_height_px":900},{"rt":1293,"stimulus":"\n      <p>Round complete.</p>\n      <p>You can move a little bit, but please try to return you head to the same general location before continuing.</p>\n    ","response":0,"trial_type":"html-button-response","trial_index":50,"time_elapsed":752802,"internal_node_id":"0.0-10.0-4.6","user_agent":"Mozilla/5.0 (Macintosh; Intel Mac OS X 10_15_7) AppleWebKit/605.1.15 (KHTML, like Gecko) Version/14.0.3 Safari/605.1.15","screen_width_px":1440,"screen_height_px":900},{"trial_type":"webgazer-init-camera","trial_index":51,"time_elapsed":756343,"internal_node_id":"0.0-10.0-5.6","user_agent":"Mozilla/5.0 (Macintosh; Intel Mac OS X 10_15_7) AppleWebKit/605.1.15 (KHTML, like Gecko) Version/14.0.3 Safari/605.1.15","screen_width_px":1440,"screen_height_px":900},{"rt":4528,"stimulus":"<p>Almost done!</p>\n      <p>Did you wear glasses while completing the experiment?</p>","response":1,"question":"glasses","trial_type":"html-button-response","trial_index":52,"time_elapsed":760874,"internal_node_id":"0.0-11.0","user_agent":"Mozilla/5.0 (Macintosh; Intel Mac OS X 10_15_7) AppleWebKit/605.1.15 (KHTML, like Gecko) Version/14.0.3 Safari/605.1.15","screen_width_px":1440,"screen_height_px":900},{"trial_type":"call-function","trial_index":53,"time_elapsed":760876,"internal_node_id":"0.0-12.0","user_agent":"Mozilla/5.0 (Macintosh; Intel Mac OS X 10_15_7) AppleWebKit/605.1.15 (KHTML, like Gecko) Version/14.0.3 Safari/605.1.15","screen_width_px":1440,"screen_height_px":900}]