[{"rt":9224,"stimulus":"\n      <p>You can elect whether to include your data in our research dataset.</p>\n    ","response":0,"question":"consent","trial_type":"html-button-response","trial_index":0,"time_elapsed":9235,"internal_node_id":"0.0-0.0","user_agent":"Mozilla/5.0 (Macintosh; Intel Mac OS X 10.13; rv:88.0) Gecko/20100101 Firefox/88.0","screen_width_px":1280,"screen_height_px":800},{"rt":2283,"stimulus":"\n      <p>This experiment uses your camera for eye tracking.</p>\n      <p>No video is saved from this experiment. The only data recorded are predictions about where you are looking.</p>\n      <p>Before we begin, there are a few things to do that can improve the accuracy of the eye tracking.</p>\n    ","response":0,"trial_type":"html-button-response","trial_index":1,"time_elapsed":11520,"internal_node_id":"0.0-1.0","user_agent":"Mozilla/5.0 (Macintosh; Intel Mac OS X 10.13; rv:88.0) Gecko/20100101 Firefox/88.0","screen_width_px":1280,"screen_height_px":800},{"rt":2484,"stimulus":"\n      <p>If you wear glasses and can complete the task without them, please remove your glasses.</p>\n    ","response":0,"trial_type":"html-button-response","trial_index":2,"time_elapsed":14003,"internal_node_id":"0.0-2.0","user_agent":"Mozilla/5.0 (Macintosh; Intel Mac OS X 10.13; rv:88.0) Gecko/20100101 Firefox/88.0","screen_width_px":1280,"screen_height_px":800},{"rt":3108,"stimulus":"\n      <p>Please close additional browser tabs and apps running in the background.<br>The eye tracker works best when there are fewer things running at the same time.</p>\n    ","response":0,"trial_type":"html-button-response","trial_index":3,"time_elapsed":17113,"internal_node_id":"0.0-3.0","user_agent":"Mozilla/5.0 (Macintosh; Intel Mac OS X 10.13; rv:88.0) Gecko/20100101 Firefox/88.0","screen_width_px":1280,"screen_height_px":800},{"rt":2601,"stimulus":"\n      <p>Try to avoid bright lights behind you.<br>The eye tracker works best if your face is well lit from the front.<br>If you can, adjust the lighting in your room.</p>\n    ","response":0,"trial_type":"html-button-response","trial_index":4,"time_elapsed":19715,"internal_node_id":"0.0-4.0","user_agent":"Mozilla/5.0 (Macintosh; Intel Mac OS X 10.13; rv:88.0) Gecko/20100101 Firefox/88.0","screen_width_px":1280,"screen_height_px":800},{"rt":1350,"stimulus":"\n      <p>In order to participate you must allow the experiment to use your camera.</p>\n      <p>You will be prompted to do this on the next screen.</p>\n    ","response":0,"trial_type":"html-button-response","trial_index":5,"time_elapsed":21065,"internal_node_id":"0.0-5.0","user_agent":"Mozilla/5.0 (Macintosh; Intel Mac OS X 10.13; rv:88.0) Gecko/20100101 Firefox/88.0","screen_width_px":1280,"screen_height_px":800},{"trial_type":"webgazer-init-camera","trial_index":6,"time_elapsed":43503,"internal_node_id":"0.0-6.0","user_agent":"Mozilla/5.0 (Macintosh; Intel Mac OS X 10.13; rv:88.0) Gecko/20100101 Firefox/88.0","screen_width_px":1280,"screen_height_px":800},{"rt":3384,"stimulus":"\n      <p>Now you'll complete a series of calibrations and validations.</p>\n      <p>The calibration will be reset after each round, so it is OK to move a little bit<br>in between the end of a validation and the start of the next calibration.</p>\n      <p>Please keep your head still during each round.</p>\n    ","response":0,"trial_type":"html-button-response","trial_index":7,"time_elapsed":46887,"internal_node_id":"0.0-7.0","user_agent":"Mozilla/5.0 (Macintosh; Intel Mac OS X 10.13; rv:88.0) Gecko/20100101 Firefox/88.0","screen_width_px":1280,"screen_height_px":800},{"success":true,"trial_type":"fullscreen","trial_index":8,"time_elapsed":49166,"internal_node_id":"0.0-8.0","user_agent":"Mozilla/5.0 (Macintosh; Intel Mac OS X 10.13; rv:88.0) Gecko/20100101 Firefox/88.0","screen_width_px":1280,"screen_height_px":800},{"rt":1898,"stimulus":"\n      <p>During the calibration phase, please look at each dot and click on it.</p>\n      <p>During the validation phase, just look at each dot while it is on the screen.</p>\n    ","response":0,"trial_type":"html-button-response","trial_index":9,"time_elapsed":51065,"internal_node_id":"0.0-9.0","user_agent":"Mozilla/5.0 (Macintosh; Intel Mac OS X 10.13; rv:88.0) Gecko/20100101 Firefox/88.0","screen_width_px":1280,"screen_height_px":800},{"rt":1213,"stimulus":"\n      <p>Calibration phase next.</p>\n      <p>Click on the dots.</p>\n    ","response":0,"trial_type":"html-button-response","trial_index":10,"time_elapsed":52280,"internal_node_id":"0.0-10.0-0.0","user_agent":"Mozilla/5.0 (Macintosh; Intel Mac OS X 10.13; rv:88.0) Gecko/20100101 Firefox/88.0","screen_width_px":1280,"screen_height_px":800},{"trial_type":"webgazer-calibrate","trial_index":11,"time_elapsed":59873,"internal_node_id":"0.0-10.0-1.0","user_agent":"Mozilla/5.0 (Macintosh; Intel Mac OS X 10.13; rv:88.0) Gecko/20100101 Firefox/88.0","screen_width_px":1280,"screen_height_px":800},{"rt":1069,"stimulus":"\n      <p>Validation phase next.</p>\n      <p>Look at the dots.</p>\n    ","response":0,"trial_type":"html-button-response","trial_index":12,"time_elapsed":60942,"internal_node_id":"0.0-10.0-2.0","user_agent":"Mozilla/5.0 (Macintosh; Intel Mac OS X 10.13; rv:88.0) Gecko/20100101 Firefox/88.0","screen_width_px":1280,"screen_height_px":800},{"raw_gaze":[[{"dx":-45,"dy":35,"t":1354},{"dx":-22,"dy":47,"t":1354},{"dx":-6,"dy":55,"t":1354},{"dx":6,"dy":60,"t":1354},{"dx":17,"dy":37,"t":1618},{"dx":25,"dy":15,"t":1618},{"dx":-6,"dy":23,"t":1618},{"dx":-30,"dy":29,"t":1882},{"dx":-51,"dy":34,"t":1882},{"dx":-65,"dy":59,"t":2097},{"dx":-60,"dy":76,"t":2097},{"dx":-56,"dy":90,"t":2097},{"dx":-53,"dy":101,"t":2097},{"dx":-44,"dy":58,"t":2097},{"dx":-30,"dy":39,"t":2274},{"dx":-19,"dy":24,"t":2274},{"dx":-38,"dy":21,"t":2541},{"dx":-39,"dy":20,"t":2541},{"dx":-40,"dy":21,"t":2541},{"dx":-37,"dy":54,"t":2541},{"dx":-35,"dy":66,"t":2541},{"dx":-82,"dy":53,"t":2768},{"dx":-122,"dy":42,"t":2768},{"dx":-155,"dy":32,"t":2768},{"dx":-142,"dy":12,"t":2768},{"dx":-190,"dy":1,"t":3033},{"dx":-228,"dy":-4,"t":3033},{"dx":-259,"dy":-7,"t":3033},{"dx":-183,"dy":-11,"t":3175},{"dx":-156,"dy":-3,"t":3175},{"dx":-146,"dy":-6,"t":3175},{"dx":-137,"dy":-9,"t":3175},{"dx":-130,"dy":-10,"t":3175}],[{"dx":26,"dy":71,"t":4380},{"dx":94,"dy":55,"t":4380},{"dx":115,"dy":51,"t":4380},{"dx":131,"dy":50,"t":4380},{"dx":141,"dy":51,"t":4380},{"dx":155,"dy":40,"t":4691},{"dx":44,"dy":-9,"t":4691},{"dx":-27,"dy":-52,"t":4691},{"dx":-88,"dy":-88,"t":4691},{"dx":-139,"dy":-116,"t":4691},{"dx":-112,"dy":-83,"t":4832},{"dx":-87,"dy":-53,"t":4832},{"dx":19,"dy":-17,"t":5063},{"dx":86,"dy":9,"t":5063},{"dx":100,"dy":29,"t":5256},{"dx":61,"dy":27,"t":5256},{"dx":26,"dy":24,"t":5256},{"dx":-4,"dy":21,"t":5256},{"dx":-30,"dy":19,"t":5256},{"dx":-75,"dy":2,"t":5403},{"dx":-95,"dy":-10,"t":5403},{"dx":-110,"dy":-21,"t":5403},{"dx":-110,"dy":-32,"t":5663},{"dx":-99,"dy":-33,"t":5663},{"dx":-112,"dy":-38,"t":5663},{"dx":-126,"dy":-42,"t":5663},{"dx":-138,"dy":-44,"t":5663},{"dx":-78,"dy":-45,"t":5831},{"dx":-26,"dy":-46,"t":5831},{"dx":2,"dy":-47,"t":6057},{"dx":4,"dy":-50,"t":6057},{"dx":-9,"dy":-52,"t":6057},{"dx":2,"dy":-74,"t":6178},{"dx":-8,"dy":-84,"t":6178},{"dx":-17,"dy":-92,"t":6178},{"dx":-25,"dy":-98,"t":6179}],[{"dx":-59,"dy":68,"t":7268},{"dx":-66,"dy":79,"t":7268},{"dx":-71,"dy":84,"t":7268},{"dx":-11,"dy":82,"t":7470},{"dx":107,"dy":77,"t":7470},{"dx":157,"dy":71,"t":7470},{"dx":151,"dy":29,"t":7861},{"dx":57,"dy":30,"t":7862},{"dx":25,"dy":20,"t":7862},{"dx":-2,"dy":12,"t":7862},{"dx":-24,"dy":4,"t":7862},{"dx":-42,"dy":-2,"t":7862},{"dx":-56,"dy":-8,"t":7862},{"dx":-121,"dy":-25,"t":8430},{"dx":-143,"dy":-50,"t":8430},{"dx":-162,"dy":-61,"t":8430},{"dx":-176,"dy":-70,"t":8430},{"dx":-186,"dy":-76,"t":8430},{"dx":-193,"dy":-81,"t":8430},{"dx":-196,"dy":-84,"t":8430},{"dx":-198,"dy":-86,"t":8430},{"dx":-198,"dy":-87,"t":8430},{"dx":-210,"dy":-102,"t":8690},{"dx":-220,"dy":-114,"t":8690},{"dx":-227,"dy":-124,"t":8690},{"dx":-231,"dy":-132,"t":8690},{"dx":-183,"dy":-87,"t":8690},{"dx":-163,"dy":-69,"t":8690},{"dx":-154,"dy":-69,"t":8914},{"dx":-147,"dy":-70,"t":8914},{"dx":-141,"dy":-71,"t":8914},{"dx":-77,"dy":-43,"t":8914},{"dx":-71,"dy":-39,"t":9084},{"dx":-93,"dy":-44,"t":9084},{"dx":-112,"dy":-50,"t":9084},{"dx":-155,"dy":-29,"t":9200},{"dx":-204,"dy":-20,"t":9200},{"dx":-245,"dy":-14,"t":9200}],[{"dx":141,"dy":22,"t":10339},{"dx":151,"dy":2,"t":10339},{"dx":166,"dy":-8,"t":10339},{"dx":112,"dy":-24,"t":10639},{"dx":100,"dy":-48,"t":10639},{"dx":89,"dy":-53,"t":10639},{"dx":100,"dy":-63,"t":10639},{"dx":111,"dy":-70,"t":10639},{"dx":113,"dy":-86,"t":10911},{"dx":160,"dy":-32,"t":10911},{"dx":179,"dy":-10,"t":10911},{"dx":195,"dy":8,"t":10911},{"dx":208,"dy":24,"t":10911},{"dx":170,"dy":9,"t":11138},{"dx":116,"dy":-7,"t":11138},{"dx":96,"dy":-14,"t":11138},{"dx":79,"dy":-20,"t":11138},{"dx":63,"dy":-41,"t":11532},{"dx":171,"dy":-31,"t":11532},{"dx":219,"dy":-9,"t":11532},{"dx":231,"dy":-24,"t":11532},{"dx":268,"dy":-2,"t":11532},{"dx":270,"dy":-19,"t":11532},{"dx":261,"dy":-29,"t":11746},{"dx":252,"dy":-37,"t":11746},{"dx":242,"dy":-44,"t":11746},{"dx":261,"dy":8,"t":11746},{"dx":242,"dy":30,"t":11923},{"dx":226,"dy":48,"t":11923},{"dx":212,"dy":63,"t":11923},{"dx":190,"dy":44,"t":12103},{"dx":178,"dy":23,"t":12103},{"dx":161,"dy":12,"t":12103},{"dx":135,"dy":11,"t":12215},{"dx":117,"dy":10,"t":12215},{"dx":102,"dy":10,"t":12215}],[{"dx":51,"dy":-120,"t":13378},{"dx":44,"dy":-133,"t":13378},{"dx":46,"dy":-133,"t":13378},{"dx":43,"dy":-129,"t":13378},{"dx":73,"dy":-118,"t":13669},{"dx":55,"dy":-143,"t":13669},{"dx":50,"dy":-140,"t":13669},{"dx":44,"dy":-135,"t":13669},{"dx":38,"dy":-130,"t":13669},{"dx":60,"dy":-104,"t":14087},{"dx":41,"dy":-89,"t":14087},{"dx":41,"dy":-69,"t":14087},{"dx":41,"dy":-52,"t":14087},{"dx":41,"dy":-39,"t":14087},{"dx":40,"dy":-27,"t":14087},{"dx":41,"dy":-24,"t":14278},{"dx":41,"dy":-22,"t":14278},{"dx":41,"dy":-21,"t":14278},{"dx":59,"dy":-60,"t":14574},{"dx":101,"dy":-65,"t":14574},{"dx":136,"dy":-70,"t":14574},{"dx":225,"dy":-65,"t":14574},{"dx":257,"dy":-63,"t":14574},{"dx":228,"dy":-61,"t":14844},{"dx":210,"dy":-54,"t":14844},{"dx":193,"dy":-48,"t":14844},{"dx":178,"dy":-42,"t":14844},{"dx":77,"dy":-45,"t":14844},{"dx":38,"dy":-47,"t":14844},{"dx":-5,"dy":-43,"t":15066},{"dx":-41,"dy":-41,"t":15066},{"dx":-68,"dy":-39,"t":15066},{"dx":-105,"dy":-36,"t":15066},{"dx":-130,"dy":-47,"t":15209},{"dx":-148,"dy":-56,"t":15209},{"dx":-162,"dy":-64,"t":15209},{"dx":-134,"dy":-63,"t":15272}],[{"dx":-10,"dy":186,"t":16311},{"dx":-19,"dy":202,"t":16311},{"dx":-25,"dy":210,"t":16311},{"dx":-47,"dy":194,"t":16590},{"dx":-16,"dy":100,"t":16590},{"dx":-10,"dy":63,"t":16590},{"dx":-4,"dy":30,"t":16590},{"dx":2,"dy":2,"t":16590},{"dx":-15,"dy":-23,"t":16870},{"dx":6,"dy":35,"t":16870},{"dx":15,"dy":59,"t":16870},{"dx":22,"dy":78,"t":16870},{"dx":28,"dy":95,"t":16870},{"dx":9,"dy":72,"t":17069},{"dx":-50,"dy":48,"t":17069},{"dx":-57,"dy":31,"t":17069},{"dx":-74,"dy":-31,"t":17219},{"dx":-38,"dy":-38,"t":17219},{"dx":-33,"dy":-48,"t":17415},{"dx":-24,"dy":-60,"t":17415},{"dx":-21,"dy":-63,"t":17415},{"dx":-12,"dy":-52,"t":17614},{"dx":-28,"dy":-53,"t":17614},{"dx":-16,"dy":-46,"t":17614},{"dx":-11,"dy":-47,"t":17812},{"dx":-2,"dy":-42,"t":17812},{"dx":1,"dy":-39,"t":17812},{"dx":-11,"dy":-42,"t":18009},{"dx":-32,"dy":-46,"t":18009},{"dx":-40,"dy":-47,"t":18009},{"dx":-31,"dy":-35,"t":18211},{"dx":-16,"dy":-17,"t":18211},{"dx":-10,"dy":-10,"t":18211},{"dx":-7,"dy":-53,"t":18338}],[{"dx":-39,"dy":-77,"t":19405},{"dx":-38,"dy":-63,"t":19405},{"dx":-36,"dy":-48,"t":19405},{"dx":38,"dy":-5,"t":19629},{"dx":30,"dy":-34,"t":19629},{"dx":29,"dy":-55,"t":19629},{"dx":23,"dy":-73,"t":19916},{"dx":14,"dy":-100,"t":19916},{"dx":10,"dy":-109,"t":19916},{"dx":7,"dy":-115,"t":19916},{"dx":7,"dy":-121,"t":20148},{"dx":7,"dy":-125,"t":20148},{"dx":33,"dy":-44,"t":20148},{"dx":26,"dy":-20,"t":20148},{"dx":19,"dy":-1,"t":20148},{"dx":-12,"dy":24,"t":20395},{"dx":-59,"dy":59,"t":20395},{"dx":-76,"dy":71,"t":20395},{"dx":-90,"dy":79,"t":20395},{"dx":-92,"dy":79,"t":20638},{"dx":-63,"dy":61,"t":20638},{"dx":-65,"dy":60,"t":20638},{"dx":-67,"dy":58,"t":20638},{"dx":-1,"dy":71,"t":20895},{"dx":133,"dy":30,"t":20895},{"dx":183,"dy":14,"t":20895},{"dx":231,"dy":35,"t":21081},{"dx":269,"dy":54,"t":21081},{"dx":297,"dy":70,"t":21081},{"dx":303,"dy":8,"t":21081},{"dx":281,"dy":-20,"t":21282},{"dx":260,"dy":-43,"t":21282},{"dx":155,"dy":-34,"t":21282},{"dx":114,"dy":-30,"t":21282},{"dx":85,"dy":-15,"t":21399}],[{"dx":39,"dy":-59,"t":22570},{"dx":19,"dy":-71,"t":22570},{"dx":20,"dy":-78,"t":22570},{"dx":-20,"dy":-84,"t":22818},{"dx":126,"dy":-18,"t":22818},{"dx":173,"dy":9,"t":22818},{"dx":213,"dy":32,"t":22818},{"dx":156,"dy":9,"t":23069},{"dx":236,"dy":14,"t":23069},{"dx":275,"dy":24,"t":23069},{"dx":307,"dy":32,"t":23069},{"dx":284,"dy":30,"t":23371},{"dx":301,"dy":40,"t":23371},{"dx":318,"dy":49,"t":23371},{"dx":331,"dy":56,"t":23371},{"dx":341,"dy":62,"t":23371},{"dx":330,"dy":31,"t":23604},{"dx":342,"dy":32,"t":23604},{"dx":370,"dy":50,"t":23604},{"dx":393,"dy":65,"t":23604},{"dx":379,"dy":58,"t":23756},{"dx":330,"dy":11,"t":23756},{"dx":312,"dy":5,"t":23952},{"dx":290,"dy":9,"t":23952},{"dx":282,"dy":11,"t":23952},{"dx":296,"dy":21,"t":24155},{"dx":320,"dy":36,"t":24155},{"dx":329,"dy":42,"t":24155},{"dx":294,"dy":13,"t":24408},{"dx":238,"dy":-32,"t":24408},{"dx":217,"dy":-49,"t":24408},{"dx":200,"dy":-63,"t":24408}],[{"dx":294,"dy":70,"t":25411},{"dx":307,"dy":84,"t":25649},{"dx":323,"dy":67,"t":25649},{"dx":328,"dy":54,"t":25649},{"dx":297,"dy":28,"t":25914},{"dx":263,"dy":14,"t":25914},{"dx":250,"dy":6,"t":25914},{"dx":239,"dy":-1,"t":25914},{"dx":222,"dy":-32,"t":26153},{"dx":235,"dy":-75,"t":26153},{"dx":242,"dy":-91,"t":26153},{"dx":247,"dy":-104,"t":26153},{"dx":259,"dy":-146,"t":26392},{"dx":277,"dy":-150,"t":26392},{"dx":279,"dy":-149,"t":26392},{"dx":280,"dy":-148,"t":26392},{"dx":274,"dy":-138,"t":26596},{"dx":226,"dy":-164,"t":26596},{"dx":207,"dy":-174,"t":26596},{"dx":210,"dy":-176,"t":26848},{"dx":268,"dy":-119,"t":26848},{"dx":284,"dy":-94,"t":26848},{"dx":297,"dy":-74,"t":26848},{"dx":312,"dy":-72,"t":27102},{"dx":299,"dy":-80,"t":27102},{"dx":295,"dy":-73,"t":27102},{"dx":291,"dy":-68,"t":27102},{"dx":262,"dy":-72,"t":27383},{"dx":252,"dy":-74,"t":27383},{"dx":221,"dy":-88,"t":27383},{"dx":196,"dy":-99,"t":27383},{"dx":175,"dy":-109,"t":27383},{"dx":152,"dy":-130,"t":27497}],[{"dx":255,"dy":77,"t":28694},{"dx":282,"dy":13,"t":28694},{"dx":289,"dy":-7,"t":28694},{"dx":294,"dy":-21,"t":28694},{"dx":309,"dy":-22,"t":29022},{"dx":307,"dy":-52,"t":29022},{"dx":311,"dy":-48,"t":29022},{"dx":314,"dy":-42,"t":29022},{"dx":315,"dy":-35,"t":29022},{"dx":339,"dy":-21,"t":29533},{"dx":357,"dy":-5,"t":29533},{"dx":335,"dy":12,"t":29533},{"dx":315,"dy":26,"t":29533},{"dx":298,"dy":38,"t":29533},{"dx":283,"dy":48,"t":29533},{"dx":257,"dy":38,"t":29697},{"dx":235,"dy":29,"t":29697},{"dx":217,"dy":21,"t":29697},{"dx":203,"dy":14,"t":29697},{"dx":192,"dy":8,"t":29697},{"dx":200,"dy":-7,"t":30048},{"dx":206,"dy":-8,"t":30048},{"dx":235,"dy":3,"t":30048},{"dx":243,"dy":10,"t":30048},{"dx":250,"dy":16,"t":30048},{"dx":255,"dy":15,"t":30311},{"dx":258,"dy":14,"t":30311},{"dx":261,"dy":13,"t":30311},{"dx":263,"dy":12,"t":30311},{"dx":265,"dy":11,"t":30311},{"dx":255,"dy":30,"t":30502},{"dx":258,"dy":39,"t":30502},{"dx":261,"dy":47,"t":30502},{"dx":263,"dy":53,"t":30502},{"dx":264,"dy":58,"t":30502},{"dx":266,"dy":64,"t":30502}],[{"dx":192,"dy":26,"t":31488},{"dx":194,"dy":28,"t":31842},{"dx":246,"dy":16,"t":31842},{"dx":256,"dy":26,"t":31842},{"dx":264,"dy":33,"t":31842},{"dx":269,"dy":38,"t":31842},{"dx":272,"dy":42,"t":31842},{"dx":264,"dy":25,"t":32134},{"dx":251,"dy":32,"t":32134},{"dx":241,"dy":30,"t":32134},{"dx":233,"dy":27,"t":32134},{"dx":225,"dy":25,"t":32134},{"dx":227,"dy":19,"t":32373},{"dx":206,"dy":16,"t":32373},{"dx":192,"dy":4,"t":32373},{"dx":180,"dy":-5,"t":32373},{"dx":199,"dy":2,"t":32648},{"dx":226,"dy":40,"t":32648},{"dx":260,"dy":50,"t":32648},{"dx":288,"dy":58,"t":32648},{"dx":311,"dy":65,"t":32648},{"dx":307,"dy":31,"t":32869},{"dx":288,"dy":62,"t":32869},{"dx":261,"dy":66,"t":32869},{"dx":201,"dy":28,"t":33287},{"dx":236,"dy":13,"t":33287},{"dx":240,"dy":7,"t":33287},{"dx":244,"dy":2,"t":33287},{"dx":256,"dy":2,"t":33518},{"dx":252,"dy":-13,"t":33518}],[{"dx":140,"dy":-42,"t":34686},{"dx":171,"dy":-27,"t":34686},{"dx":183,"dy":-19,"t":34686},{"dx":123,"dy":-34,"t":34916},{"dx":156,"dy":-22,"t":34916},{"dx":184,"dy":10,"t":34916},{"dx":153,"dy":5,"t":35272},{"dx":233,"dy":42,"t":35272},{"dx":265,"dy":61,"t":35272},{"dx":291,"dy":76,"t":35272},{"dx":291,"dy":86,"t":35272},{"dx":289,"dy":94,"t":35272},{"dx":279,"dy":97,"t":35486},{"dx":265,"dy":62,"t":35486},{"dx":258,"dy":47,"t":35486},{"dx":245,"dy":22,"t":35929},{"dx":111,"dy":-67,"t":35929},{"dx":59,"dy":-100,"t":35929},{"dx":18,"dy":-126,"t":35929},{"dx":-15,"dy":-147,"t":35929},{"dx":-39,"dy":-162,"t":35929},{"dx":-51,"dy":-152,"t":36268},{"dx":-59,"dy":-141,"t":36268},{"dx":-62,"dy":-130,"t":36268},{"dx":-1,"dy":-78,"t":36268},{"dx":32,"dy":-47,"t":36268},{"dx":86,"dy":-6,"t":36534},{"dx":131,"dy":28,"t":36534},{"dx":169,"dy":56,"t":36534},{"dx":199,"dy":78,"t":36534},{"dx":223,"dy":94,"t":36534},{"dx":229,"dy":69,"t":36534},{"dx":228,"dy":57,"t":36534},{"dx":221,"dy":61,"t":36608}],[{"dx":234,"dy":81,"t":37649},{"dx":252,"dy":84,"t":37649},{"dx":268,"dy":87,"t":37649},{"dx":279,"dy":74,"t":37857},{"dx":289,"dy":58,"t":37857},{"dx":312,"dy":69,"t":37857},{"dx":345,"dy":77,"t":38091},{"dx":310,"dy":90,"t":38091},{"dx":296,"dy":95,"t":38091},{"dx":282,"dy":98,"t":38091},{"dx":286,"dy":103,"t":38336},{"dx":304,"dy":132,"t":38336},{"dx":322,"dy":141,"t":38336},{"dx":337,"dy":148,"t":38336},{"dx":335,"dy":145,"t":38604},{"dx":296,"dy":98,"t":38604},{"dx":280,"dy":88,"t":38604},{"dx":268,"dy":90,"t":38604},{"dx":254,"dy":96,"t":38968},{"dx":219,"dy":77,"t":38968},{"dx":206,"dy":80,"t":38968},{"dx":195,"dy":82,"t":38968},{"dx":188,"dy":84,"t":38968},{"dx":183,"dy":87,"t":38968},{"dx":125,"dy":61,"t":39412},{"dx":173,"dy":65,"t":39412},{"dx":190,"dy":61,"t":39412},{"dx":205,"dy":57,"t":39412},{"dx":218,"dy":55,"t":39412},{"dx":229,"dy":53,"t":39412},{"dx":238,"dy":51,"t":39412},{"dx":245,"dy":51,"t":39412},{"dx":250,"dy":50,"t":39412}]],"percent_in_roi":[81.81818181818183,94.44444444444444,42.10526315789473,38.88888888888889,72.97297297297297,88.23529411764706,77.14285714285715,15.625,0,0,0,32.35294117647059,3.0303030303030303],"average_offset":[{"x":-77.51515151515152,"y":31.939393939393938,"r":61.918783263601135},{"x":-14.13888888888889,"y":-21.583333333333332,"r":124.49936759264975},{"x":-106.3157894736842,"y":-30.289473684210527,"r":148.43844901528854},{"x":169.08333333333334,"y":-9.63888888888889,"r":98.5097886166242},{"x":47.027027027027025,"y":-71.27027027027027,"r":61.73827270842392},{"x":-16.941176470588236,"y":18.029411764705884,"r":96.68645103272934},{"x":54.74285714285714,"y":-10.257142857142858,"r":115.07533291239247},{"x":251.28125,"y":8.96875,"r":117.65373259514348},{"x":259.4848484848485,"y":-72.03030303030303,"r":73.92518492383955},{"x":269.72222222222223,"y":12.25,"r":61.82041758212265},{"x":242.7,"y":26.5,"r":43.29493422258372},{"x":147.2058823529412,"y":-7.5,"r":172.88810104454052},{"x":254.93939393939394,"y":83.87878787878788,"r":43.42098573082546}],"samples_per_sec":"17.42","clicks":5,"pattern":"spread","trial_type":"webgazer-validate","trial_index":13,"time_elapsed":101360,"internal_node_id":"0.0-10.0-3.0","validation_points":[[62.5,62.5],[75,25],[85,85],[25,75],[85,15],[75,75],[62.5,37.5],[15,15],[15,85],[25,25],[37.5,62.5],[50,50],[37.5,37.5]],"user_agent":"Mozilla/5.0 (Macintosh; Intel Mac OS X 10.13; rv:88.0) Gecko/20100101 Firefox/88.0","screen_width_px":1280,"screen_height_px":800},{"rt":2618,"stimulus":"\n      <p>Round complete.</p>\n      <p>You can move a little bit, but please try to return you head to the same general location before continuing.</p>\n    ","response":0,"trial_type":"html-button-response","trial_index":14,"time_elapsed":103983,"internal_node_id":"0.0-10.0-4.0","user_agent":"Mozilla/5.0 (Macintosh; Intel Mac OS X 10.13; rv:88.0) Gecko/20100101 Firefox/88.0","screen_width_px":1280,"screen_height_px":800},{"trial_type":"webgazer-init-camera","trial_index":15,"time_elapsed":138236,"internal_node_id":"0.0-10.0-5.0","user_agent":"Mozilla/5.0 (Macintosh; Intel Mac OS X 10.13; rv:88.0) Gecko/20100101 Firefox/88.0","screen_width_px":1280,"screen_height_px":800},{"rt":1168,"stimulus":"\n      <p>Calibration phase next.</p>\n      <p>Click on the dots.</p>\n    ","response":0,"trial_type":"html-button-response","trial_index":16,"time_elapsed":139407,"internal_node_id":"0.0-10.0-0.1","user_agent":"Mozilla/5.0 (Macintosh; Intel Mac OS X 10.13; rv:88.0) Gecko/20100101 Firefox/88.0","screen_width_px":1280,"screen_height_px":800},{"trial_type":"webgazer-calibrate","trial_index":17,"time_elapsed":161107,"internal_node_id":"0.0-10.0-1.1","user_agent":"Mozilla/5.0 (Macintosh; Intel Mac OS X 10.13; rv:88.0) Gecko/20100101 Firefox/88.0","screen_width_px":1280,"screen_height_px":800},{"rt":1091,"stimulus":"\n      <p>Validation phase next.</p>\n      <p>Look at the dots.</p>\n    ","response":0,"trial_type":"html-button-response","trial_index":18,"time_elapsed":162198,"internal_node_id":"0.0-10.0-2.1","user_agent":"Mozilla/5.0 (Macintosh; Intel Mac OS X 10.13; rv:88.0) Gecko/20100101 Firefox/88.0","screen_width_px":1280,"screen_height_px":800},{"raw_gaze":[[{"dx":-164,"dy":-111,"t":1103},{"dx":-163,"dy":-77,"t":1427},{"dx":-165,"dy":-26,"t":1427},{"dx":-167,"dy":-9,"t":1427},{"dx":-168,"dy":4,"t":1427},{"dx":-155,"dy":24,"t":1727},{"dx":-132,"dy":23,"t":1727},{"dx":-124,"dy":20,"t":1727},{"dx":-117,"dy":17,"t":1727},{"dx":-112,"dy":-6,"t":2053},{"dx":-116,"dy":9,"t":2053},{"dx":-119,"dy":14,"t":2054},{"dx":-121,"dy":18,"t":2054},{"dx":-124,"dy":21,"t":2054},{"dx":-120,"dy":-7,"t":2577},{"dx":-130,"dy":-30,"t":2577},{"dx":-132,"dy":-34,"t":2577},{"dx":-133,"dy":-36,"t":2577},{"dx":-135,"dy":-37,"t":2577},{"dx":-136,"dy":-38,"t":2577},{"dx":-137,"dy":-38,"t":2577},{"dx":-116,"dy":-51,"t":2832},{"dx":-98,"dy":-62,"t":2832},{"dx":-84,"dy":-71,"t":2832},{"dx":-72,"dy":-77,"t":2832},{"dx":-62,"dy":-83,"t":2832},{"dx":-53,"dy":-65,"t":2832},{"dx":-49,"dy":-47,"t":3096},{"dx":-42,"dy":-28,"t":3096},{"dx":-41,"dy":-15,"t":3096},{"dx":-49,"dy":-16,"t":3239},{"dx":-39,"dy":-18,"t":3239},{"dx":-32,"dy":-20,"t":3239},{"dx":-25,"dy":-23,"t":3239},{"dx":-21,"dy":-25,"t":3239}],[{"dx":109,"dy":137,"t":4566},{"dx":60,"dy":142,"t":4566},{"dx":21,"dy":144,"t":4566},{"dx":-8,"dy":143,"t":4566},{"dx":38,"dy":131,"t":4566},{"dx":92,"dy":138,"t":4797},{"dx":141,"dy":144,"t":4797},{"dx":183,"dy":147,"t":4797},{"dx":219,"dy":150,"t":4797},{"dx":245,"dy":130,"t":5139},{"dx":275,"dy":139,"t":5139},{"dx":299,"dy":146,"t":5139},{"dx":317,"dy":152,"t":5139},{"dx":275,"dy":115,"t":5139},{"dx":259,"dy":104,"t":5139},{"dx":244,"dy":95,"t":5139},{"dx":209,"dy":83,"t":5333},{"dx":180,"dy":74,"t":5333},{"dx":155,"dy":66,"t":5333},{"dx":136,"dy":61,"t":5333},{"dx":164,"dy":117,"t":5682},{"dx":164,"dy":210,"t":5682},{"dx":165,"dy":288,"t":5682},{"dx":148,"dy":224,"t":5682},{"dx":137,"dy":187,"t":5682},{"dx":127,"dy":155,"t":5682},{"dx":117,"dy":148,"t":5941},{"dx":109,"dy":143,"t":5941},{"dx":103,"dy":140,"t":5941},{"dx":99,"dy":137,"t":5941},{"dx":219,"dy":45,"t":5941},{"dx":185,"dy":44,"t":6166},{"dx":155,"dy":45,"t":6166},{"dx":129,"dy":47,"t":6166},{"dx":107,"dy":50,"t":6166},{"dx":151,"dy":-4,"t":6166},{"dx":145,"dy":11,"t":6283},{"dx":139,"dy":26,"t":6283},{"dx":135,"dy":39,"t":6283}],[{"dx":222,"dy":308,"t":7345},{"dx":258,"dy":273,"t":7345},{"dx":231,"dy":243,"t":7658},{"dx":172,"dy":201,"t":7658},{"dx":143,"dy":188,"t":7658},{"dx":116,"dy":179,"t":7658},{"dx":90,"dy":174,"t":7658},{"dx":74,"dy":183,"t":8097},{"dx":77,"dy":168,"t":8097},{"dx":37,"dy":148,"t":8097},{"dx":44,"dy":148,"t":8097},{"dx":9,"dy":134,"t":8097},{"dx":76,"dy":164,"t":8335},{"dx":135,"dy":190,"t":8335},{"dx":184,"dy":212,"t":8335},{"dx":225,"dy":232,"t":8335},{"dx":179,"dy":321,"t":8573},{"dx":183,"dy":367,"t":8573},{"dx":185,"dy":405,"t":8573},{"dx":186,"dy":435,"t":8573},{"dx":134,"dy":351,"t":8573},{"dx":131,"dy":335,"t":8769},{"dx":129,"dy":321,"t":8769},{"dx":127,"dy":308,"t":8769},{"dx":168,"dy":255,"t":8926},{"dx":200,"dy":227,"t":8926},{"dx":226,"dy":204,"t":8926},{"dx":208,"dy":183,"t":9137},{"dx":193,"dy":168,"t":9137},{"dx":153,"dy":119,"t":9321},{"dx":119,"dy":60,"t":9321},{"dx":90,"dy":12,"t":9321},{"dx":66,"dy":-26,"t":9321},{"dx":102,"dy":17,"t":9321}],[{"dx":-270,"dy":-22,"t":10756},{"dx":-284,"dy":34,"t":10756},{"dx":-285,"dy":55,"t":10756},{"dx":-282,"dy":72,"t":10756},{"dx":-277,"dy":85,"t":10756},{"dx":-270,"dy":94,"t":10756},{"dx":-262,"dy":100,"t":10756},{"dx":-202,"dy":139,"t":10958},{"dx":-150,"dy":171,"t":10958},{"dx":-106,"dy":196,"t":10958},{"dx":-70,"dy":216,"t":10958},{"dx":-7,"dy":172,"t":11167},{"dx":24,"dy":175,"t":11167},{"dx":48,"dy":178,"t":11167},{"dx":39,"dy":137,"t":11392},{"dx":24,"dy":101,"t":11392},{"dx":10,"dy":88,"t":11392},{"dx":-3,"dy":60,"t":11392},{"dx":-26,"dy":40,"t":11392},{"dx":-45,"dy":28,"t":11640},{"dx":-62,"dy":18,"t":11640},{"dx":-75,"dy":11,"t":11640},{"dx":-48,"dy":-27,"t":11916},{"dx":-36,"dy":-46,"t":11916},{"dx":-26,"dy":-61,"t":11916},{"dx":-18,"dy":-72,"t":11916},{"dx":-11,"dy":-80,"t":11916},{"dx":-65,"dy":-8,"t":11916},{"dx":-84,"dy":-12,"t":12364},{"dx":-100,"dy":-16,"t":12364},{"dx":-112,"dy":-19,"t":12364},{"dx":-122,"dy":-21,"t":12364},{"dx":-134,"dy":-25,"t":12364},{"dx":-137,"dy":-26,"t":12364},{"dx":-139,"dy":-27,"t":12364},{"dx":-140,"dy":-28,"t":12364},{"dx":-140,"dy":-28,"t":12364},{"dx":-139,"dy":-28,"t":12364},{"dx":-107,"dy":12,"t":12442},{"dx":-79,"dy":46,"t":12442}],[{"dx":-133,"dy":6,"t":13326},{"dx":-113,"dy":16,"t":13326},{"dx":-72,"dy":31,"t":13826},{"dx":-114,"dy":31,"t":13826},{"dx":-148,"dy":23,"t":13826},{"dx":-142,"dy":21,"t":13826},{"dx":-137,"dy":18,"t":13826},{"dx":-134,"dy":13,"t":13826},{"dx":-131,"dy":9,"t":13826},{"dx":-164,"dy":10,"t":14007},{"dx":-193,"dy":11,"t":14007},{"dx":-217,"dy":11,"t":14007},{"dx":-230,"dy":-8,"t":14188},{"dx":-228,"dy":-22,"t":14188},{"dx":-226,"dy":-34,"t":14188},{"dx":-155,"dy":-60,"t":14459},{"dx":-165,"dy":-91,"t":14459},{"dx":-174,"dy":-117,"t":14459},{"dx":-143,"dy":-68,"t":14459},{"dx":-156,"dy":-65,"t":14459},{"dx":-164,"dy":-67,"t":14637},{"dx":-189,"dy":-74,"t":14637},{"dx":-192,"dy":-74,"t":14637},{"dx":-145,"dy":-50,"t":14937},{"dx":-149,"dy":-46,"t":14937},{"dx":-153,"dy":-43,"t":14937},{"dx":-74,"dy":-19,"t":14937},{"dx":-42,"dy":-10,"t":14937},{"dx":-15,"dy":-3,"t":14937},{"dx":5,"dy":3,"t":14937},{"dx":21,"dy":18,"t":15175},{"dx":33,"dy":30,"t":15175},{"dx":-56,"dy":33,"t":15175},{"dx":-92,"dy":34,"t":15175},{"dx":-77,"dy":50,"t":15345},{"dx":-63,"dy":63,"t":15345},{"dx":-51,"dy":73,"t":15345},{"dx":-115,"dy":45,"t":15345}],[{"dx":-208,"dy":4,"t":16388},{"dx":-201,"dy":-13,"t":16597},{"dx":-179,"dy":-21,"t":16597},{"dx":-176,"dy":-19,"t":16597},{"dx":-154,"dy":-13,"t":16858},{"dx":-126,"dy":-13,"t":16858},{"dx":-109,"dy":-16,"t":16858},{"dx":-95,"dy":-19,"t":16858},{"dx":-97,"dy":-41,"t":17108},{"dx":-118,"dy":-49,"t":17108},{"dx":-134,"dy":-50,"t":17108},{"dx":-148,"dy":-51,"t":17108},{"dx":-140,"dy":-17,"t":17355},{"dx":-89,"dy":-16,"t":17355},{"dx":-69,"dy":-16,"t":17355},{"dx":-53,"dy":-16,"t":17355},{"dx":-26,"dy":-16,"t":17595},{"dx":-37,"dy":-17,"t":17595},{"dx":-64,"dy":-26,"t":17595},{"dx":-87,"dy":-34,"t":17595},{"dx":-77,"dy":-30,"t":17802},{"dx":-151,"dy":-48,"t":17802},{"dx":-179,"dy":-54,"t":17802},{"dx":-191,"dy":-63,"t":18063},{"dx":-192,"dy":-70,"t":18063},{"dx":-190,"dy":-72,"t":18063},{"dx":-188,"dy":-73,"t":18063},{"dx":-190,"dy":-70,"t":18363},{"dx":-192,"dy":-63,"t":18363},{"dx":-192,"dy":-60,"t":18363},{"dx":-191,"dy":-58,"t":18363},{"dx":-190,"dy":-56,"t":18363},{"dx":-175,"dy":-24,"t":18492}],[{"dx":393,"dy":40,"t":19716},{"dx":355,"dy":17,"t":19716},{"dx":345,"dy":6,"t":19716},{"dx":340,"dy":-3,"t":19716},{"dx":338,"dy":-11,"t":19716},{"dx":279,"dy":15,"t":19948},{"dx":227,"dy":47,"t":19948},{"dx":210,"dy":54,"t":19948},{"dx":174,"dy":57,"t":19948},{"dx":143,"dy":44,"t":20174},{"dx":175,"dy":63,"t":20174},{"dx":181,"dy":56,"t":20174},{"dx":165,"dy":57,"t":20174},{"dx":159,"dy":57,"t":20371},{"dx":178,"dy":56,"t":20371},{"dx":172,"dy":45,"t":20371},{"dx":179,"dy":35,"t":20659},{"dx":202,"dy":-3,"t":20659},{"dx":198,"dy":-21,"t":20659},{"dx":196,"dy":-35,"t":20659},{"dx":193,"dy":-46,"t":20659},{"dx":196,"dy":-39,"t":20872},{"dx":169,"dy":-49,"t":20872},{"dx":152,"dy":-49,"t":20872},{"dx":143,"dy":-46,"t":21151},{"dx":138,"dy":-43,"t":21151},{"dx":141,"dy":-44,"t":21151},{"dx":144,"dy":-45,"t":21151},{"dx":147,"dy":-46,"t":21151},{"dx":127,"dy":-41,"t":21349},{"dx":160,"dy":7,"t":21349},{"dx":171,"dy":-7,"t":21349},{"dx":168,"dy":-19,"t":21505},{"dx":207,"dy":2,"t":21505}],[{"dx":192,"dy":202,"t":22589},{"dx":228,"dy":182,"t":22589},{"dx":275,"dy":202,"t":22804},{"dx":292,"dy":208,"t":22804},{"dx":291,"dy":213,"t":22804},{"dx":266,"dy":186,"t":23063},{"dx":217,"dy":147,"t":23063},{"dx":195,"dy":134,"t":23063},{"dx":174,"dy":125,"t":23063},{"dx":153,"dy":128,"t":23476},{"dx":120,"dy":136,"t":23476},{"dx":108,"dy":141,"t":23476},{"dx":98,"dy":146,"t":23476},{"dx":90,"dy":150,"t":23476},{"dx":84,"dy":155,"t":23476},{"dx":80,"dy":159,"t":23476},{"dx":122,"dy":219,"t":23721},{"dx":176,"dy":148,"t":23721},{"dx":208,"dy":128,"t":23721},{"dx":223,"dy":102,"t":23721},{"dx":216,"dy":148,"t":23921},{"dx":183,"dy":128,"t":23921},{"dx":164,"dy":123,"t":23921},{"dx":170,"dy":149,"t":24160},{"dx":205,"dy":137,"t":24160},{"dx":218,"dy":132,"t":24160},{"dx":229,"dy":128,"t":24160},{"dx":244,"dy":123,"t":24450},{"dx":234,"dy":129,"t":24450},{"dx":228,"dy":132,"t":24450},{"dx":224,"dy":135,"t":24450},{"dx":219,"dy":137,"t":24450},{"dx":194,"dy":83,"t":24566}],[{"dx":283,"dy":126,"t":25680},{"dx":237,"dy":101,"t":25680},{"dx":211,"dy":58,"t":25958},{"dx":187,"dy":-7,"t":25958},{"dx":185,"dy":-30,"t":25958},{"dx":177,"dy":-34,"t":26219},{"dx":152,"dy":-75,"t":26219},{"dx":147,"dy":-88,"t":26219},{"dx":150,"dy":-103,"t":26459},{"dx":162,"dy":-120,"t":26459},{"dx":169,"dy":-124,"t":26459},{"dx":190,"dy":-140,"t":26754},{"dx":215,"dy":-104,"t":26754},{"dx":224,"dy":-87,"t":26754},{"dx":234,"dy":-75,"t":26754},{"dx":235,"dy":-59,"t":27035},{"dx":179,"dy":-112,"t":27035},{"dx":157,"dy":-132,"t":27035},{"dx":139,"dy":-149,"t":27035},{"dx":125,"dy":-140,"t":27259},{"dx":135,"dy":-109,"t":27259},{"dx":131,"dy":-86,"t":27259},{"dx":176,"dy":-94,"t":27588},{"dx":147,"dy":-125,"t":27588},{"dx":152,"dy":-92,"t":27588},{"dx":144,"dy":-134,"t":27588},{"dx":113,"dy":-148,"t":27588}],[{"dx":47,"dy":-67,"t":28646},{"dx":60,"dy":-30,"t":28646},{"dx":68,"dy":-3,"t":28646},{"dx":71,"dy":16,"t":28954},{"dx":71,"dy":36,"t":28954},{"dx":70,"dy":39,"t":28954},{"dx":67,"dy":39,"t":28954},{"dx":64,"dy":36,"t":28954},{"dx":68,"dy":54,"t":29333},{"dx":58,"dy":28,"t":29333},{"dx":58,"dy":20,"t":29333},{"dx":57,"dy":12,"t":29333},{"dx":57,"dy":5,"t":29333},{"dx":56,"dy":-1,"t":29333},{"dx":56,"dy":-7,"t":29333},{"dx":29,"dy":-50,"t":29703},{"dx":49,"dy":-92,"t":29703},{"dx":58,"dy":-107,"t":29703},{"dx":65,"dy":-118,"t":29703},{"dx":70,"dy":-126,"t":29703},{"dx":75,"dy":-132,"t":29703},{"dx":79,"dy":-136,"t":29703},{"dx":89,"dy":-171,"t":29904},{"dx":33,"dy":-123,"t":29904},{"dx":11,"dy":-102,"t":29904},{"dx":59,"dy":-106,"t":30114},{"dx":68,"dy":-125,"t":30114},{"dx":69,"dy":-122,"t":30114},{"dx":112,"dy":-76,"t":30466},{"dx":58,"dy":-49,"t":30466},{"dx":44,"dy":-42,"t":30466},{"dx":32,"dy":-37,"t":30466},{"dx":22,"dy":-33,"t":30466},{"dx":14,"dy":-31,"t":30466},{"dx":21,"dy":-40,"t":30602}],[{"dx":181,"dy":-74,"t":31746},{"dx":217,"dy":-48,"t":31746},{"dx":231,"dy":-39,"t":31746},{"dx":225,"dy":-49,"t":32058},{"dx":158,"dy":-51,"t":32058},{"dx":131,"dy":-53,"t":32058},{"dx":110,"dy":-55,"t":32058},{"dx":93,"dy":-57,"t":32058},{"dx":73,"dy":-69,"t":32263},{"dx":47,"dy":-88,"t":32263},{"dx":38,"dy":-95,"t":32263},{"dx":45,"dy":-92,"t":32626},{"dx":59,"dy":-87,"t":32626},{"dx":66,"dy":-84,"t":32626},{"dx":72,"dy":-82,"t":32626},{"dx":78,"dy":-80,"t":32626},{"dx":83,"dy":-78,"t":32626},{"dx":93,"dy":-62,"t":33214},{"dx":110,"dy":-62,"t":33214},{"dx":121,"dy":-59,"t":33214},{"dx":130,"dy":-57,"t":33214},{"dx":138,"dy":-55,"t":33214},{"dx":143,"dy":-54,"t":33214},{"dx":147,"dy":-53,"t":33214},{"dx":150,"dy":-53,"t":33214},{"dx":151,"dy":-53,"t":33214},{"dx":129,"dy":-22,"t":33498},{"dx":110,"dy":4,"t":33498},{"dx":94,"dy":25,"t":33498},{"dx":84,"dy":-16,"t":33650},{"dx":89,"dy":-36,"t":33650},{"dx":93,"dy":-53,"t":33650},{"dx":98,"dy":-67,"t":33650},{"dx":102,"dy":-78,"t":33650}],[{"dx":184,"dy":-12,"t":34826},{"dx":151,"dy":17,"t":34826},{"dx":145,"dy":25,"t":34826},{"dx":141,"dy":32,"t":34826},{"dx":116,"dy":-58,"t":35088},{"dx":143,"dy":-54,"t":35088},{"dx":165,"dy":-61,"t":35088},{"dx":184,"dy":-66,"t":35088},{"dx":174,"dy":-87,"t":35431},{"dx":162,"dy":-91,"t":35431},{"dx":153,"dy":-89,"t":35431},{"dx":145,"dy":-87,"t":35431},{"dx":138,"dy":-84,"t":35431},{"dx":133,"dy":-82,"t":35431},{"dx":181,"dy":-97,"t":35704},{"dx":131,"dy":-37,"t":35704},{"dx":105,"dy":-9,"t":35704},{"dx":83,"dy":13,"t":35704},{"dx":58,"dy":4,"t":36111},{"dx":63,"dy":-17,"t":36111},{"dx":73,"dy":-28,"t":36111},{"dx":82,"dy":-38,"t":36111},{"dx":90,"dy":-47,"t":36111},{"dx":97,"dy":-54,"t":36111},{"dx":104,"dy":-60,"t":36111},{"dx":77,"dy":-128,"t":36458},{"dx":84,"dy":-151,"t":36458},{"dx":74,"dy":-134,"t":36458},{"dx":70,"dy":-123,"t":36458},{"dx":62,"dy":-108,"t":36458},{"dx":56,"dy":-94,"t":36458},{"dx":66,"dy":-56,"t":36622},{"dx":97,"dy":-35,"t":36622}],[{"dx":239,"dy":4,"t":37814},{"dx":211,"dy":-17,"t":37814},{"dx":203,"dy":-23,"t":37814},{"dx":162,"dy":-73,"t":38181},{"dx":162,"dy":-132,"t":38181},{"dx":170,"dy":-142,"t":38181},{"dx":178,"dy":-148,"t":38181},{"dx":185,"dy":-150,"t":38181},{"dx":193,"dy":-151,"t":38181},{"dx":174,"dy":-164,"t":38475},{"dx":155,"dy":-130,"t":38475},{"dx":148,"dy":-115,"t":38475},{"dx":143,"dy":-102,"t":38475},{"dx":184,"dy":-70,"t":38703},{"dx":197,"dy":-61,"t":38703},{"dx":222,"dy":-42,"t":38703},{"dx":270,"dy":-5,"t":38943},{"dx":261,"dy":-16,"t":38943},{"dx":256,"dy":-22,"t":38943},{"dx":268,"dy":-22,"t":39394},{"dx":283,"dy":-24,"t":39394},{"dx":288,"dy":-25,"t":39394},{"dx":292,"dy":-26,"t":39394},{"dx":294,"dy":-28,"t":39394},{"dx":295,"dy":-29,"t":39394},{"dx":296,"dy":-31,"t":39394},{"dx":295,"dy":-32,"t":39394}]],"percent_in_roi":[82.85714285714286,23.076923076923077,14.705882352941178,65,55.26315789473685,45.45454545454545,11.76470588235294,0,0,91.42857142857143,73.52941176470588,57.57575757575758,0],"average_offset":[{"x":-104.37142857142857,"y":-25.714285714285715,"r":56.0037462303794},{"x":157.6153846153846,"y":115.2051282051282,"r":79.49010747295415},{"x":143.2941176470588,"y":211.97058823529412,"r":142.17684068989414},{"x":-104.2,"y":42.05,"r":172.92228460923667},{"x":-123.5,"y":-7.947368421052632,"r":101.46328457877101},{"x":-139.63636363636363,"y":-36.36363636363637,"r":54.57764201817867},{"x":201.91176470588235,"y":3.264705882352941,"r":94.35979499824182},{"x":191.5151515151515,"y":148.33333333333334,"r":46.67697642905238},{"x":176.14814814814815,"y":-77.11111111111111,"r":52.05834544614196},{"x":56.714285714285715,"y":-46.885714285714286,"r":62.4832124393},{"x":114.38235294117646,"y":-56.8235294117647,"r":56.69654076141614},{"x":114.75757575757575,"y":-57.45454545454545,"r":57.940867865111855},{"x":223.11111111111111,"y":-65.77777777777777,"r":79.4289029087268}],"samples_per_sec":"17.27","clicks":15,"pattern":"spread","trial_type":"webgazer-validate","trial_index":19,"time_elapsed":202745,"internal_node_id":"0.0-10.0-3.1","validation_points":[[62.5,62.5],[25,75],[85,15],[62.5,37.5],[85,85],[75,75],[15,85],[75,25],[25,25],[50,50],[37.5,62.5],[37.5,37.5],[15,15]],"user_agent":"Mozilla/5.0 (Macintosh; Intel Mac OS X 10.13; rv:88.0) Gecko/20100101 Firefox/88.0","screen_width_px":1280,"screen_height_px":800},{"rt":4645,"stimulus":"\n      <p>Round complete.</p>\n      <p>You can move a little bit, but please try to return you head to the same general location before continuing.</p>\n    ","response":0,"trial_type":"html-button-response","trial_index":20,"time_elapsed":207393,"internal_node_id":"0.0-10.0-4.1","user_agent":"Mozilla/5.0 (Macintosh; Intel Mac OS X 10.13; rv:88.0) Gecko/20100101 Firefox/88.0","screen_width_px":1280,"screen_height_px":800},{"trial_type":"webgazer-init-camera","trial_index":21,"time_elapsed":215170,"internal_node_id":"0.0-10.0-5.1","user_agent":"Mozilla/5.0 (Macintosh; Intel Mac OS X 10.13; rv:88.0) Gecko/20100101 Firefox/88.0","screen_width_px":1280,"screen_height_px":800},{"rt":1063,"stimulus":"\n      <p>Calibration phase next.</p>\n      <p>Click on the dots.</p>\n    ","response":0,"trial_type":"html-button-response","trial_index":22,"time_elapsed":216234,"internal_node_id":"0.0-10.0-0.2","user_agent":"Mozilla/5.0 (Macintosh; Intel Mac OS X 10.13; rv:88.0) Gecko/20100101 Firefox/88.0","screen_width_px":1280,"screen_height_px":800},{"trial_type":"webgazer-calibrate","trial_index":23,"time_elapsed":254761,"internal_node_id":"0.0-10.0-1.2","user_agent":"Mozilla/5.0 (Macintosh; Intel Mac OS X 10.13; rv:88.0) Gecko/20100101 Firefox/88.0","screen_width_px":1280,"screen_height_px":800},{"rt":2475,"stimulus":"\n      <p>Validation phase next.</p>\n      <p>Look at the dots.</p>\n    ","response":0,"trial_type":"html-button-response","trial_index":24,"time_elapsed":257236,"internal_node_id":"0.0-10.0-2.2","user_agent":"Mozilla/5.0 (Macintosh; Intel Mac OS X 10.13; rv:88.0) Gecko/20100101 Firefox/88.0","screen_width_px":1280,"screen_height_px":800},{"raw_gaze":[[{"dx":-98,"dy":13,"t":1392},{"dx":-122,"dy":75,"t":1392},{"dx":-146,"dy":77,"t":1392},{"dx":-63,"dy":-2,"t":1746},{"dx":7,"dy":-71,"t":1746},{"dx":46,"dy":-107,"t":1746},{"dx":77,"dy":-137,"t":1746},{"dx":99,"dy":-161,"t":1746},{"dx":0,"dy":-127,"t":1746},{"dx":-40,"dy":-108,"t":1746},{"dx":-37,"dy":-100,"t":2020},{"dx":-35,"dy":-92,"t":2020},{"dx":-33,"dy":-86,"t":2020},{"dx":-31,"dy":-81,"t":2020},{"dx":-30,"dy":-77,"t":2020},{"dx":-87,"dy":-108,"t":2020},{"dx":-122,"dy":-121,"t":2020},{"dx":-108,"dy":-113,"t":2271},{"dx":-95,"dy":-105,"t":2271},{"dx":-83,"dy":-99,"t":2271},{"dx":-185,"dy":-103,"t":2271},{"dx":-224,"dy":-105,"t":2271},{"dx":-196,"dy":-32,"t":2566},{"dx":-169,"dy":30,"t":2566},{"dx":-240,"dy":11,"t":2566},{"dx":-294,"dy":-2,"t":2566},{"dx":-273,"dy":3,"t":2809},{"dx":-253,"dy":6,"t":2809},{"dx":-234,"dy":8,"t":2809},{"dx":-217,"dy":9,"t":2809},{"dx":-202,"dy":10,"t":2809},{"dx":-130,"dy":-48,"t":3059},{"dx":-139,"dy":-69,"t":3059},{"dx":-147,"dy":-87,"t":3059},{"dx":-156,"dy":-101,"t":3059},{"dx":-136,"dy":-127,"t":3059},{"dx":-108,"dy":-152,"t":3184},{"dx":-85,"dy":-173,"t":3184},{"dx":-67,"dy":-189,"t":3184},{"dx":-52,"dy":-201,"t":3184}],[{"dx":4,"dy":217,"t":4447},{"dx":51,"dy":247,"t":4447},{"dx":94,"dy":272,"t":4447},{"dx":132,"dy":294,"t":4447},{"dx":165,"dy":312,"t":4447},{"dx":192,"dy":326,"t":4447},{"dx":278,"dy":230,"t":4661},{"dx":351,"dy":147,"t":4661},{"dx":191,"dy":-30,"t":4888},{"dx":128,"dy":-150,"t":4888},{"dx":74,"dy":-248,"t":4888},{"dx":30,"dy":-326,"t":4888},{"dx":32,"dy":-203,"t":5042},{"dx":34,"dy":-161,"t":5042},{"dx":36,"dy":-123,"t":5042},{"dx":40,"dy":-88,"t":5042},{"dx":-4,"dy":-31,"t":5335},{"dx":-46,"dy":-33,"t":5335},{"dx":-9,"dy":27,"t":5335},{"dx":4,"dy":53,"t":5335},{"dx":6,"dy":57,"t":5530},{"dx":9,"dy":59,"t":5530},{"dx":11,"dy":60,"t":5530},{"dx":13,"dy":59,"t":5530},{"dx":105,"dy":87,"t":5847},{"dx":149,"dy":106,"t":5847},{"dx":185,"dy":121,"t":5847},{"dx":213,"dy":136,"t":5847},{"dx":197,"dy":149,"t":5847},{"dx":143,"dy":138,"t":5847},{"dx":114,"dy":139,"t":6184},{"dx":88,"dy":139,"t":6184},{"dx":67,"dy":138,"t":6184},{"dx":99,"dy":94,"t":6184},{"dx":111,"dy":78,"t":6184},{"dx":121,"dy":64,"t":6184},{"dx":-1,"dy":-38,"t":6312},{"dx":-104,"dy":-124,"t":6312},{"dx":-191,"dy":-194,"t":6312},{"dx":-261,"dy":-251,"t":6312}],[{"dx":15,"dy":4,"t":7489},{"dx":7,"dy":9,"t":7489},{"dx":-1,"dy":11,"t":7489},{"dx":45,"dy":18,"t":7773},{"dx":85,"dy":22,"t":7773},{"dx":117,"dy":24,"t":7773},{"dx":143,"dy":24,"t":7773},{"dx":219,"dy":14,"t":7773},{"dx":191,"dy":8,"t":7773},{"dx":207,"dy":0,"t":8021},{"dx":220,"dy":-7,"t":8021},{"dx":228,"dy":-13,"t":8021},{"dx":204,"dy":-37,"t":8021},{"dx":201,"dy":18,"t":8423},{"dx":197,"dy":66,"t":8423},{"dx":193,"dy":105,"t":8423},{"dx":163,"dy":87,"t":8423},{"dx":138,"dy":56,"t":8423},{"dx":117,"dy":28,"t":8423},{"dx":100,"dy":5,"t":8423},{"dx":86,"dy":-15,"t":8423},{"dx":104,"dy":13,"t":8724},{"dx":121,"dy":37,"t":8724},{"dx":135,"dy":58,"t":8724},{"dx":119,"dy":56,"t":8724},{"dx":87,"dy":47,"t":8724},{"dx":81,"dy":60,"t":9008},{"dx":77,"dy":71,"t":9008},{"dx":74,"dy":80,"t":9008},{"dx":72,"dy":87,"t":9008},{"dx":104,"dy":112,"t":9008},{"dx":130,"dy":112,"t":9251},{"dx":153,"dy":111,"t":9251},{"dx":171,"dy":110,"t":9251},{"dx":186,"dy":108,"t":9251},{"dx":184,"dy":111,"t":9382},{"dx":181,"dy":117,"t":9382},{"dx":179,"dy":122,"t":9382},{"dx":176,"dy":126,"t":9382}],[{"dx":82,"dy":232,"t":10419},{"dx":82,"dy":262,"t":10419},{"dx":149,"dy":227,"t":10637},{"dx":85,"dy":187,"t":10637},{"dx":60,"dy":193,"t":10637},{"dx":56,"dy":147,"t":10939},{"dx":-48,"dy":133,"t":10939},{"dx":-88,"dy":130,"t":10939},{"dx":-120,"dy":127,"t":10939},{"dx":-145,"dy":127,"t":10939},{"dx":-130,"dy":113,"t":11290},{"dx":-170,"dy":77,"t":11290},{"dx":-183,"dy":64,"t":11290},{"dx":-192,"dy":55,"t":11290},{"dx":-188,"dy":10,"t":11529},{"dx":-182,"dy":-27,"t":11529},{"dx":-176,"dy":-57,"t":11529},{"dx":-134,"dy":-3,"t":11529},{"dx":-110,"dy":-58,"t":11806},{"dx":-116,"dy":-108,"t":11806},{"dx":-122,"dy":-149,"t":11806},{"dx":-129,"dy":-40,"t":11806},{"dx":-132,"dy":6,"t":11806},{"dx":-111,"dy":-15,"t":12045},{"dx":-94,"dy":-33,"t":12045},{"dx":-79,"dy":-49,"t":12045},{"dx":-103,"dy":46,"t":12045},{"dx":-89,"dy":95,"t":12289},{"dx":-76,"dy":135,"t":12289},{"dx":-66,"dy":167,"t":12289},{"dx":-57,"dy":196,"t":12289},{"dx":-37,"dy":214,"t":12414},{"dx":-20,"dy":228,"t":12414},{"dx":-6,"dy":238,"t":12414}],[{"dx":-15,"dy":128,"t":13424},{"dx":4,"dy":108,"t":13424},{"dx":-18,"dy":116,"t":13642},{"dx":-38,"dy":121,"t":13642},{"dx":-43,"dy":128,"t":13642},{"dx":-49,"dy":146,"t":13898},{"dx":-73,"dy":131,"t":13898},{"dx":-82,"dy":126,"t":13898},{"dx":-90,"dy":121,"t":13898},{"dx":-62,"dy":71,"t":14167},{"dx":-44,"dy":101,"t":14167},{"dx":-37,"dy":114,"t":14167},{"dx":-32,"dy":125,"t":14167},{"dx":44,"dy":82,"t":14425},{"dx":-19,"dy":59,"t":14425},{"dx":-46,"dy":51,"t":14425},{"dx":-69,"dy":45,"t":14425},{"dx":-19,"dy":64,"t":14692},{"dx":-1,"dy":79,"t":14692},{"dx":-25,"dy":95,"t":14692},{"dx":-46,"dy":109,"t":14692},{"dx":19,"dy":9,"t":14958},{"dx":11,"dy":32,"t":14958},{"dx":7,"dy":42,"t":14958},{"dx":3,"dy":52,"t":14958},{"dx":-22,"dy":51,"t":15210},{"dx":-60,"dy":50,"t":15210},{"dx":-75,"dy":49,"t":15210},{"dx":-86,"dy":49,"t":15210},{"dx":-106,"dy":66,"t":15379},{"dx":-63,"dy":119,"t":15379}],[{"dx":16,"dy":262,"t":16418},{"dx":23,"dy":189,"t":16730},{"dx":50,"dy":203,"t":16730},{"dx":70,"dy":197,"t":16730},{"dx":87,"dy":190,"t":16730},{"dx":101,"dy":183,"t":16730},{"dx":74,"dy":39,"t":17008},{"dx":84,"dy":83,"t":17008},{"dx":92,"dy":86,"t":17008},{"dx":74,"dy":107,"t":17008},{"dx":101,"dy":110,"t":17205},{"dx":123,"dy":112,"t":17205},{"dx":77,"dy":156,"t":17205},{"dx":59,"dy":167,"t":17205},{"dx":72,"dy":156,"t":17680},{"dx":60,"dy":144,"t":17680},{"dx":56,"dy":139,"t":17680},{"dx":53,"dy":135,"t":17680},{"dx":50,"dy":131,"t":17680},{"dx":49,"dy":128,"t":17680},{"dx":47,"dy":126,"t":17680},{"dx":47,"dy":124,"t":17680},{"dx":46,"dy":122,"t":17680},{"dx":142,"dy":81,"t":18111},{"dx":52,"dy":98,"t":18111},{"dx":24,"dy":117,"t":18111},{"dx":1,"dy":133,"t":18111},{"dx":-18,"dy":147,"t":18111},{"dx":73,"dy":49,"t":18366},{"dx":152,"dy":-35,"t":18366},{"dx":218,"dy":-105,"t":18366},{"dx":273,"dy":-162,"t":18366},{"dx":137,"dy":-52,"t":18366},{"dx":98,"dy":4,"t":18493},{"dx":65,"dy":53,"t":18493},{"dx":37,"dy":94,"t":18493},{"dx":14,"dy":128,"t":18493}],[{"dx":-89,"dy":40,"t":19575},{"dx":-182,"dy":-61,"t":19575},{"dx":-233,"dy":-90,"t":19797},{"dx":-180,"dy":-101,"t":19797},{"dx":-155,"dy":-111,"t":19797},{"dx":-157,"dy":-144,"t":20082},{"dx":-148,"dy":-113,"t":20082},{"dx":-118,"dy":-75,"t":20082},{"dx":-93,"dy":-56,"t":20082},{"dx":-42,"dy":-37,"t":20316},{"dx":-9,"dy":60,"t":20316},{"dx":33,"dy":130,"t":20316},{"dx":11,"dy":104,"t":20533},{"dx":18,"dy":130,"t":20533},{"dx":68,"dy":154,"t":20533},{"dx":-16,"dy":82,"t":20744},{"dx":9,"dy":88,"t":20744},{"dx":25,"dy":100,"t":20744},{"dx":-16,"dy":35,"t":21033},{"dx":4,"dy":27,"t":21033},{"dx":14,"dy":20,"t":21033},{"dx":22,"dy":15,"t":21033},{"dx":-8,"dy":-33,"t":21227},{"dx":-34,"dy":-72,"t":21227},{"dx":-44,"dy":-54,"t":21227},{"dx":-34,"dy":-53,"t":21227},{"dx":-40,"dy":-3,"t":21506},{"dx":-48,"dy":4,"t":21506},{"dx":-1,"dy":33,"t":21506},{"dx":39,"dy":57,"t":21506},{"dx":32,"dy":82,"t":21506}],[{"dx":79,"dy":75,"t":22572},{"dx":81,"dy":103,"t":22572},{"dx":77,"dy":143,"t":22900},{"dx":59,"dy":158,"t":22900},{"dx":52,"dy":175,"t":22900},{"dx":46,"dy":187,"t":22900},{"dx":45,"dy":195,"t":22900},{"dx":23,"dy":192,"t":23175},{"dx":-10,"dy":138,"t":23175},{"dx":-22,"dy":116,"t":23175},{"dx":-33,"dy":97,"t":23175},{"dx":-41,"dy":75,"t":23399},{"dx":-51,"dy":43,"t":23399},{"dx":-54,"dy":32,"t":23399},{"dx":-30,"dy":33,"t":23848},{"dx":-92,"dy":19,"t":23848},{"dx":-77,"dy":14,"t":23848},{"dx":-64,"dy":11,"t":23848},{"dx":-52,"dy":10,"t":23848},{"dx":-41,"dy":9,"t":23848},{"dx":145,"dy":-100,"t":24529},{"dx":93,"dy":-44,"t":24529},{"dx":56,"dy":-25,"t":24529},{"dx":24,"dy":-8,"t":24529},{"dx":-4,"dy":8,"t":24529},{"dx":-28,"dy":20,"t":24529},{"dx":-48,"dy":31,"t":24529},{"dx":-64,"dy":40,"t":24529},{"dx":38,"dy":-15,"t":24715},{"dx":125,"dy":-61,"t":24715},{"dx":199,"dy":-101,"t":24715}],[{"dx":138,"dy":6,"t":25723},{"dx":175,"dy":28,"t":25723},{"dx":181,"dy":-16,"t":26173},{"dx":172,"dy":-26,"t":26173},{"dx":186,"dy":-35,"t":26173},{"dx":199,"dy":-43,"t":26173},{"dx":209,"dy":-50,"t":26173},{"dx":218,"dy":-56,"t":26173},{"dx":226,"dy":-61,"t":26173},{"dx":231,"dy":-65,"t":26173},{"dx":224,"dy":-165,"t":26490},{"dx":168,"dy":-159,"t":26490},{"dx":147,"dy":-148,"t":26490},{"dx":129,"dy":-137,"t":26490},{"dx":115,"dy":-128,"t":26490},{"dx":121,"dy":-114,"t":26790},{"dx":105,"dy":-73,"t":26790},{"dx":100,"dy":-58,"t":26790},{"dx":97,"dy":-45,"t":26790},{"dx":95,"dy":-35,"t":26790},{"dx":83,"dy":-4,"t":27404},{"dx":67,"dy":43,"t":27404},{"dx":61,"dy":59,"t":27404},{"dx":58,"dy":71,"t":27404},{"dx":55,"dy":79,"t":27404},{"dx":54,"dy":85,"t":27404},{"dx":54,"dy":88,"t":27404},{"dx":54,"dy":89,"t":27404},{"dx":55,"dy":89,"t":27404},{"dx":56,"dy":88,"t":27404},{"dx":101,"dy":51,"t":27650},{"dx":140,"dy":19,"t":27651},{"dx":172,"dy":-8,"t":27651},{"dx":177,"dy":6,"t":27651},{"dx":210,"dy":-16,"t":27651},{"dx":230,"dy":-38,"t":27724}],[{"dx":-19,"dy":-38,"t":28906},{"dx":-103,"dy":18,"t":28906},{"dx":-141,"dy":45,"t":28906},{"dx":-175,"dy":71,"t":28906},{"dx":-82,"dy":25,"t":29229},{"dx":-54,"dy":-34,"t":29229},{"dx":-19,"dy":-51,"t":29229},{"dx":9,"dy":-63,"t":29229},{"dx":31,"dy":-71,"t":29229},{"dx":112,"dy":-110,"t":29401},{"dx":131,"dy":20,"t":29401},{"dx":159,"dy":-57,"t":29675},{"dx":204,"dy":-132,"t":29675},{"dx":218,"dy":-159,"t":29675},{"dx":227,"dy":-180,"t":29675},{"dx":205,"dy":-192,"t":30051},{"dx":146,"dy":-113,"t":30051},{"dx":118,"dy":-75,"t":30051},{"dx":94,"dy":-42,"t":30051},{"dx":74,"dy":-15,"t":30051},{"dx":57,"dy":7,"t":30051},{"dx":18,"dy":72,"t":30427},{"dx":61,"dy":210,"t":30427},{"dx":97,"dy":297,"t":30427},{"dx":128,"dy":367,"t":30427},{"dx":154,"dy":421,"t":30427},{"dx":175,"dy":462,"t":30427},{"dx":167,"dy":470,"t":30673},{"dx":152,"dy":469,"t":30673},{"dx":145,"dy":462,"t":30673}],[{"dx":-104,"dy":166,"t":31673},{"dx":-77,"dy":212,"t":31961},{"dx":-8,"dy":236,"t":31961},{"dx":20,"dy":240,"t":31961},{"dx":44,"dy":240,"t":31961},{"dx":29,"dy":253,"t":32184},{"dx":7,"dy":262,"t":32184},{"dx":15,"dy":269,"t":32184},{"dx":17,"dy":225,"t":32451},{"dx":-42,"dy":152,"t":32451},{"dx":-52,"dy":112,"t":32451},{"dx":-84,"dy":100,"t":32451},{"dx":-118,"dy":104,"t":32866},{"dx":-169,"dy":112,"t":32866},{"dx":-185,"dy":117,"t":32866},{"dx":-198,"dy":122,"t":32866},{"dx":-206,"dy":126,"t":32866},{"dx":-212,"dy":130,"t":32866},{"dx":-215,"dy":133,"t":32866},{"dx":-200,"dy":110,"t":33271},{"dx":-177,"dy":64,"t":33271},{"dx":-167,"dy":47,"t":33271},{"dx":-158,"dy":34,"t":33271},{"dx":-150,"dy":23,"t":33271},{"dx":-121,"dy":2,"t":33461},{"dx":-96,"dy":-14,"t":33461},{"dx":-76,"dy":-27,"t":33461},{"dx":-60,"dy":-36,"t":33461},{"dx":-61,"dy":-54,"t":33647},{"dx":-58,"dy":-28,"t":33647},{"dx":-57,"dy":-5,"t":33647},{"dx":21,"dy":-21,"t":33769},{"dx":60,"dy":-30,"t":33769},{"dx":92,"dy":-38,"t":33769}],[{"dx":281,"dy":39,"t":34849},{"dx":251,"dy":52,"t":34849},{"dx":215,"dy":52,"t":34849},{"dx":203,"dy":-14,"t":35213},{"dx":203,"dy":27,"t":35213},{"dx":216,"dy":41,"t":35213},{"dx":231,"dy":53,"t":35213},{"dx":245,"dy":63,"t":35213},{"dx":260,"dy":71,"t":35213},{"dx":289,"dy":46,"t":35388},{"dx":272,"dy":-22,"t":35388},{"dx":266,"dy":-65,"t":35622},{"dx":303,"dy":-74,"t":35622},{"dx":318,"dy":-75,"t":35622},{"dx":304,"dy":-70,"t":35966},{"dx":290,"dy":-63,"t":35966},{"dx":282,"dy":-36,"t":35966},{"dx":275,"dy":-13,"t":35966},{"dx":269,"dy":7,"t":35966},{"dx":265,"dy":23,"t":35966},{"dx":258,"dy":6,"t":36254},{"dx":281,"dy":-23,"t":36254},{"dx":291,"dy":-35,"t":36254},{"dx":299,"dy":-44,"t":36254},{"dx":306,"dy":-52,"t":36254},{"dx":289,"dy":-57,"t":36632},{"dx":262,"dy":-63,"t":36632},{"dx":252,"dy":-65,"t":36632},{"dx":244,"dy":-66,"t":36632},{"dx":237,"dy":-66,"t":36632},{"dx":232,"dy":-66,"t":36632},{"dx":228,"dy":-66,"t":36632},{"dx":233,"dy":-80,"t":36794},{"dx":248,"dy":-59,"t":36794}],[{"dx":-12,"dy":1,"t":37933},{"dx":-98,"dy":-45,"t":37933},{"dx":-172,"dy":-124,"t":38274},{"dx":-218,"dy":-130,"t":38274},{"dx":-198,"dy":-114,"t":38274},{"dx":-212,"dy":-108,"t":38274},{"dx":-220,"dy":-99,"t":38274},{"dx":-224,"dy":-89,"t":38274},{"dx":-249,"dy":-121,"t":38435},{"dx":-165,"dy":-104,"t":38435},{"dx":-131,"dy":-59,"t":38725},{"dx":-98,"dy":40,"t":38725},{"dx":-87,"dy":79,"t":38725},{"dx":-77,"dy":110,"t":38725},{"dx":-70,"dy":135,"t":38725},{"dx":-57,"dy":53,"t":39101},{"dx":-6,"dy":6,"t":39101},{"dx":17,"dy":2,"t":39101},{"dx":35,"dy":-1,"t":39101},{"dx":48,"dy":-3,"t":39101},{"dx":58,"dy":-5,"t":39101},{"dx":65,"dy":-6,"t":39101},{"dx":67,"dy":-2,"t":39429},{"dx":39,"dy":-4,"t":39429},{"dx":26,"dy":-4,"t":39429},{"dx":15,"dy":-5,"t":39429},{"dx":6,"dy":-5,"t":39429},{"dx":-2,"dy":-5,"t":39429},{"dx":-1,"dy":14,"t":39630},{"dx":-32,"dy":15,"t":39630},{"dx":-59,"dy":7,"t":39630}]],"percent_in_roi":[40,37.5,51.28205128205128,29.411764705882355,90.32258064516128,59.45945945945946,77.41935483870968,74.19354838709677,47.22222222222222,46.666666666666664,35.294117647058826,0,70.96774193548387],"average_offset":[{"x":-110.2,"y":-71.05,"r":132.06503994037888},{"x":71.275,"y":43.725,"r":210.44526427618422},{"x":133.56410256410257,"y":50.38461538461539,"r":70.39488972696292},{"x":-76.1470588235294,"y":84.41176470588235,"r":186.24918756730554},{"x":-36.516129032258064,"y":85.12903225806451,"r":43.35851078919109},{"x":75.10810810810811,"y":103.75675675675676,"r":52.79604346908747},{"x":-44.25806451612903,"y":5.096774193548387,"r":81.93060691607134},{"x":13.903225806451612,"y":50.645161290322584,"r":85.10585316825369},{"x":135.08333333333334,"y":-18.86111111111111,"r":136.8490557285807},{"x":76.3,"y":69.46666666666667,"r":276.25317199939},{"x":-80.76470588235294,"y":98.17647058823529,"r":182.45363821375176},{"x":261.70588235294116,"y":-20.41176470588235,"r":79.0543208183609},{"x":-64.90322580645162,"y":-18.419354838709676,"r":101.41049477017522}],"samples_per_sec":"17.11","clicks":25,"pattern":"spread","trial_type":"webgazer-validate","trial_index":25,"time_elapsed":297974,"internal_node_id":"0.0-10.0-3.2","validation_points":[[85,85],[37.5,37.5],[37.5,62.5],[62.5,37.5],[75,25],[62.5,62.5],[25,25],[50,50],[25,75],[85,15],[75,75],[15,85],[15,15]],"user_agent":"Mozilla/5.0 (Macintosh; Intel Mac OS X 10.13; rv:88.0) Gecko/20100101 Firefox/88.0","screen_width_px":1280,"screen_height_px":800},{"rt":23168,"stimulus":"\n      <p>Round complete.</p>\n      <p>You can move a little bit, but please try to return you head to the same general location before continuing.</p>\n    ","response":0,"trial_type":"html-button-response","trial_index":26,"time_elapsed":321145,"internal_node_id":"0.0-10.0-4.2","user_agent":"Mozilla/5.0 (Macintosh; Intel Mac OS X 10.13; rv:88.0) Gecko/20100101 Firefox/88.0","screen_width_px":1280,"screen_height_px":800},{"trial_type":"webgazer-init-camera","trial_index":27,"time_elapsed":336219,"internal_node_id":"0.0-10.0-5.2","user_agent":"Mozilla/5.0 (Macintosh; Intel Mac OS X 10.13; rv:88.0) Gecko/20100101 Firefox/88.0","screen_width_px":1280,"screen_height_px":800},{"rt":1147,"stimulus":"\n      <p>Calibration phase next.</p>\n      <p>Click on the dots.</p>\n    ","response":0,"trial_type":"html-button-response","trial_index":28,"time_elapsed":337367,"internal_node_id":"0.0-10.0-0.3","user_agent":"Mozilla/5.0 (Macintosh; Intel Mac OS X 10.13; rv:88.0) Gecko/20100101 Firefox/88.0","screen_width_px":1280,"screen_height_px":800},{"trial_type":"webgazer-calibrate","trial_index":29,"time_elapsed":359041,"internal_node_id":"0.0-10.0-1.3","user_agent":"Mozilla/5.0 (Macintosh; Intel Mac OS X 10.13; rv:88.0) Gecko/20100101 Firefox/88.0","screen_width_px":1280,"screen_height_px":800},{"rt":1204,"stimulus":"\n      <p>Validation phase next.</p>\n      <p>Look at the dots.</p>\n    ","response":0,"trial_type":"html-button-response","trial_index":30,"time_elapsed":360245,"internal_node_id":"0.0-10.0-2.3","user_agent":"Mozilla/5.0 (Macintosh; Intel Mac OS X 10.13; rv:88.0) Gecko/20100101 Firefox/88.0","screen_width_px":1280,"screen_height_px":800},{"raw_gaze":[[{"dx":-7,"dy":-46,"t":1479},{"dx":42,"dy":-64,"t":1479},{"dx":82,"dy":-79,"t":1479},{"dx":88,"dy":-37,"t":1479},{"dx":40,"dy":-18,"t":1906},{"dx":-4,"dy":-1,"t":1906},{"dx":-42,"dy":13,"t":1906},{"dx":-75,"dy":24,"t":1906},{"dx":-103,"dy":33,"t":1906},{"dx":-3,"dy":26,"t":1906},{"dx":4,"dy":16,"t":1906},{"dx":10,"dy":7,"t":1906},{"dx":14,"dy":-1,"t":1906},{"dx":72,"dy":43,"t":2200},{"dx":122,"dy":80,"t":2200},{"dx":162,"dy":111,"t":2200},{"dx":194,"dy":136,"t":2200},{"dx":152,"dy":86,"t":2802},{"dx":158,"dy":61,"t":2802},{"dx":153,"dy":49,"t":2802},{"dx":147,"dy":39,"t":2802},{"dx":142,"dy":30,"t":2802},{"dx":139,"dy":-6,"t":2802},{"dx":146,"dy":-4,"t":2802},{"dx":160,"dy":2,"t":2802},{"dx":173,"dy":7,"t":2802},{"dx":182,"dy":12,"t":2802},{"dx":190,"dy":17,"t":2802},{"dx":195,"dy":21,"t":2802},{"dx":199,"dy":25,"t":2802},{"dx":202,"dy":28,"t":2802},{"dx":248,"dy":30,"t":3019},{"dx":287,"dy":32,"t":3019},{"dx":319,"dy":33,"t":3019},{"dx":344,"dy":1,"t":3150},{"dx":397,"dy":4,"t":3150},{"dx":433,"dy":16,"t":3150},{"dx":460,"dy":26,"t":3150}],[{"dx":-22,"dy":93,"t":4306},{"dx":42,"dy":98,"t":4306},{"dx":41,"dy":97,"t":4306},{"dx":14,"dy":114,"t":4660},{"dx":-15,"dy":121,"t":4660},{"dx":-13,"dy":113,"t":4660},{"dx":-12,"dy":107,"t":4660},{"dx":-11,"dy":102,"t":4660},{"dx":-37,"dy":112,"t":4660},{"dx":-32,"dy":132,"t":4989},{"dx":-23,"dy":126,"t":4989},{"dx":-24,"dy":122,"t":4989},{"dx":-26,"dy":119,"t":4989},{"dx":-28,"dy":116,"t":4989},{"dx":-29,"dy":113,"t":4989},{"dx":15,"dy":119,"t":5564},{"dx":27,"dy":116,"t":5564},{"dx":14,"dy":106,"t":5564},{"dx":2,"dy":98,"t":5564},{"dx":-9,"dy":92,"t":5564},{"dx":-18,"dy":87,"t":5564},{"dx":-25,"dy":83,"t":5564},{"dx":-121,"dy":222,"t":5829},{"dx":-202,"dy":341,"t":5829},{"dx":-269,"dy":440,"t":5829},{"dx":-323,"dy":521,"t":5829},{"dx":-365,"dy":584,"t":5829},{"dx":-397,"dy":633,"t":5829},{"dx":-420,"dy":669,"t":5829},{"dx":-286,"dy":511,"t":6028},{"dx":-236,"dy":460,"t":6028},{"dx":-193,"dy":416,"t":6028},{"dx":-156,"dy":377,"t":6028},{"dx":-97,"dy":186,"t":6145},{"dx":-98,"dy":128,"t":6145},{"dx":-101,"dy":82,"t":6145}],[{"dx":261,"dy":106,"t":7378},{"dx":246,"dy":90,"t":7378},{"dx":244,"dy":81,"t":7378},{"dx":243,"dy":71,"t":7378},{"dx":245,"dy":61,"t":7378},{"dx":221,"dy":59,"t":7636},{"dx":214,"dy":59,"t":7636},{"dx":227,"dy":62,"t":7636},{"dx":239,"dy":64,"t":7636},{"dx":216,"dy":42,"t":7881},{"dx":184,"dy":33,"t":7881},{"dx":171,"dy":25,"t":7881},{"dx":162,"dy":18,"t":7881},{"dx":100,"dy":22,"t":8335},{"dx":189,"dy":38,"t":8335},{"dx":226,"dy":44,"t":8335},{"dx":257,"dy":50,"t":8335},{"dx":283,"dy":55,"t":8335},{"dx":304,"dy":59,"t":8335},{"dx":321,"dy":61,"t":8335},{"dx":273,"dy":8,"t":8717},{"dx":230,"dy":-37,"t":8717},{"dx":197,"dy":-44,"t":8717},{"dx":179,"dy":-51,"t":8717},{"dx":165,"dy":-55,"t":8717},{"dx":154,"dy":-69,"t":8951},{"dx":145,"dy":-80,"t":8951},{"dx":138,"dy":-89,"t":8951},{"dx":134,"dy":-95,"t":8951},{"dx":97,"dy":-84,"t":8951},{"dx":80,"dy":-63,"t":9148},{"dx":68,"dy":-45,"t":9148},{"dx":58,"dy":-29,"t":9148},{"dx":121,"dy":0,"t":9148},{"dx":149,"dy":-29,"t":9218}],[{"dx":150,"dy":13,"t":10276},{"dx":119,"dy":-17,"t":10276},{"dx":104,"dy":-26,"t":10276},{"dx":119,"dy":-18,"t":10686},{"dx":121,"dy":-41,"t":10686},{"dx":141,"dy":-37,"t":10686},{"dx":127,"dy":-43,"t":10686},{"dx":70,"dy":52,"t":10896},{"dx":21,"dy":134,"t":10896},{"dx":-21,"dy":202,"t":10896},{"dx":-54,"dy":258,"t":10896},{"dx":-40,"dy":259,"t":11156},{"dx":-40,"dy":284,"t":11156},{"dx":-38,"dy":303,"t":11156},{"dx":6,"dy":177,"t":11398},{"dx":16,"dy":129,"t":11398},{"dx":25,"dy":88,"t":11398},{"dx":32,"dy":55,"t":11398},{"dx":32,"dy":19,"t":11607},{"dx":27,"dy":14,"t":11607},{"dx":22,"dy":11,"t":11607},{"dx":18,"dy":10,"t":11607},{"dx":-3,"dy":-19,"t":11832},{"dx":-12,"dy":-25,"t":11832},{"dx":-19,"dy":-29,"t":11832},{"dx":23,"dy":-40,"t":11832},{"dx":-2,"dy":-53,"t":12024},{"dx":-25,"dy":-62,"t":12024},{"dx":-44,"dy":-69,"t":12024},{"dx":-12,"dy":-13,"t":12191},{"dx":-12,"dy":14,"t":12191},{"dx":-13,"dy":38,"t":12191},{"dx":27,"dy":-17,"t":12191}],[{"dx":36,"dy":-19,"t":13172},{"dx":49,"dy":-27,"t":13532},{"dx":60,"dy":-19,"t":13532},{"dx":64,"dy":-18,"t":13532},{"dx":67,"dy":-18,"t":13532},{"dx":69,"dy":-20,"t":13532},{"dx":71,"dy":-22,"t":13532},{"dx":34,"dy":-18,"t":13878},{"dx":65,"dy":-39,"t":13878},{"dx":64,"dy":-52,"t":13878},{"dx":62,"dy":-63,"t":13878},{"dx":33,"dy":-64,"t":13878},{"dx":8,"dy":-65,"t":13878},{"dx":-15,"dy":-39,"t":14080},{"dx":-16,"dy":-66,"t":14080},{"dx":-5,"dy":-86,"t":14080},{"dx":2,"dy":-94,"t":14330},{"dx":22,"dy":-118,"t":14330},{"dx":36,"dy":-125,"t":14330},{"dx":47,"dy":-131,"t":14330},{"dx":29,"dy":-121,"t":14524},{"dx":47,"dy":-87,"t":14524},{"dx":68,"dy":-73,"t":14524},{"dx":90,"dy":-74,"t":14939},{"dx":56,"dy":-88,"t":14939},{"dx":39,"dy":-99,"t":14939},{"dx":26,"dy":-109,"t":14939},{"dx":14,"dy":-117,"t":14939},{"dx":4,"dy":-123,"t":14939},{"dx":50,"dy":-121,"t":15085},{"dx":89,"dy":-118,"t":15085},{"dx":122,"dy":-116,"t":15085},{"dx":150,"dy":-113,"t":15085},{"dx":183,"dy":-71,"t":15194},{"dx":175,"dy":-61,"t":15194}],[{"dx":17,"dy":-123,"t":16216},{"dx":-54,"dy":-97,"t":16487},{"dx":-3,"dy":-60,"t":16487},{"dx":9,"dy":-53,"t":16487},{"dx":22,"dy":-46,"t":16487},{"dx":13,"dy":26,"t":16756},{"dx":74,"dy":-26,"t":16756},{"dx":76,"dy":-45,"t":16756},{"dx":78,"dy":-60,"t":16756},{"dx":-5,"dy":-48,"t":17017},{"dx":4,"dy":-2,"t":17017},{"dx":-22,"dy":25,"t":17017},{"dx":-31,"dy":47,"t":17017},{"dx":-110,"dy":41,"t":17359},{"dx":-46,"dy":32,"t":17359},{"dx":-23,"dy":12,"t":17359},{"dx":-3,"dy":-5,"t":17359},{"dx":15,"dy":-19,"t":17359},{"dx":29,"dy":-31,"t":17359},{"dx":81,"dy":-10,"t":17580},{"dx":91,"dy":-1,"t":17580},{"dx":97,"dy":-1,"t":17580},{"dx":141,"dy":7,"t":17917},{"dx":111,"dy":35,"t":17917},{"dx":94,"dy":52,"t":17917},{"dx":79,"dy":66,"t":17917},{"dx":66,"dy":77,"t":17917},{"dx":55,"dy":85,"t":17917},{"dx":134,"dy":80,"t":18128},{"dx":160,"dy":40,"t":18128},{"dx":149,"dy":38,"t":18128},{"dx":169,"dy":27,"t":18260}],[{"dx":-36,"dy":-69,"t":19228},{"dx":5,"dy":-42,"t":19534},{"dx":57,"dy":-11,"t":19534},{"dx":64,"dy":-4,"t":19534},{"dx":64,"dy":-1,"t":19534},{"dx":60,"dy":-1,"t":19534},{"dx":71,"dy":-3,"t":19826},{"dx":53,"dy":-20,"t":19826},{"dx":37,"dy":-29,"t":19826},{"dx":23,"dy":-38,"t":19826},{"dx":13,"dy":-19,"t":20165},{"dx":4,"dy":-3,"t":20165},{"dx":-1,"dy":-38,"t":20165},{"dx":4,"dy":-59,"t":20165},{"dx":8,"dy":-77,"t":20165},{"dx":11,"dy":-92,"t":20165},{"dx":13,"dy":-104,"t":20165},{"dx":13,"dy":-123,"t":20421},{"dx":0,"dy":-130,"t":20421},{"dx":-5,"dy":-131,"t":20421},{"dx":-9,"dy":-131,"t":20421},{"dx":13,"dy":-143,"t":20734},{"dx":25,"dy":-122,"t":20734},{"dx":28,"dy":-115,"t":20734},{"dx":31,"dy":-110,"t":20734},{"dx":33,"dy":-105,"t":20734},{"dx":41,"dy":-117,"t":20939},{"dx":1,"dy":-104,"t":20939},{"dx":4,"dy":-99,"t":20939},{"dx":-3,"dy":-96,"t":21256},{"dx":-19,"dy":-93,"t":21256},{"dx":-10,"dy":-96,"t":21256},{"dx":-1,"dy":-98,"t":21256},{"dx":6,"dy":-100,"t":21256},{"dx":33,"dy":-117,"t":21373}],[{"dx":-178,"dy":-111,"t":22446},{"dx":-189,"dy":-143,"t":22446},{"dx":-170,"dy":-107,"t":22667},{"dx":-182,"dy":-123,"t":22667},{"dx":-160,"dy":-113,"t":22667},{"dx":-173,"dy":-66,"t":22966},{"dx":-160,"dy":-46,"t":22966},{"dx":-157,"dy":-41,"t":22966},{"dx":-152,"dy":-37,"t":22966},{"dx":-145,"dy":-33,"t":22966},{"dx":-90,"dy":-31,"t":23281},{"dx":-83,"dy":-74,"t":23281},{"dx":-94,"dy":-90,"t":23281},{"dx":-102,"dy":-103,"t":23281},{"dx":-110,"dy":-114,"t":23281},{"dx":-20,"dy":-86,"t":23615},{"dx":-25,"dy":-73,"t":23615},{"dx":-34,"dy":-77,"t":23615},{"dx":-42,"dy":-80,"t":23615},{"dx":-49,"dy":-83,"t":23615},{"dx":21,"dy":-43,"t":23922},{"dx":26,"dy":-51,"t":23922},{"dx":27,"dy":-55,"t":23922},{"dx":46,"dy":-62,"t":23922},{"dx":82,"dy":-38,"t":24148},{"dx":111,"dy":-18,"t":24148},{"dx":133,"dy":-33,"t":24148},{"dx":140,"dy":-39,"t":24148},{"dx":127,"dy":-51,"t":24408},{"dx":115,"dy":-61,"t":24408},{"dx":83,"dy":-131,"t":24408},{"dx":64,"dy":-164,"t":24408},{"dx":49,"dy":-190,"t":24408}],[{"dx":-61,"dy":-310,"t":25519},{"dx":-7,"dy":-156,"t":25519},{"dx":-39,"dy":-134,"t":25906},{"dx":50,"dy":-29,"t":25906},{"dx":84,"dy":4,"t":25907},{"dx":112,"dy":27,"t":25907},{"dx":164,"dy":9,"t":26215},{"dx":215,"dy":17,"t":26215},{"dx":187,"dy":7,"t":26215},{"dx":161,"dy":-4,"t":26215},{"dx":193,"dy":-62,"t":26400},{"dx":222,"dy":-61,"t":26400},{"dx":313,"dy":-87,"t":26770},{"dx":324,"dy":-89,"t":26770},{"dx":295,"dy":-95,"t":26770},{"dx":268,"dy":-100,"t":26770},{"dx":244,"dy":-105,"t":26770},{"dx":223,"dy":-108,"t":26770},{"dx":254,"dy":-142,"t":27058},{"dx":284,"dy":-132,"t":27058},{"dx":294,"dy":-127,"t":27058},{"dx":302,"dy":-115,"t":27310},{"dx":307,"dy":-104,"t":27310},{"dx":311,"dy":-95,"t":27310},{"dx":261,"dy":-99,"t":27310},{"dx":226,"dy":-92,"t":27440},{"dx":197,"dy":-86,"t":27440},{"dx":173,"dy":-81,"t":27440}],[{"dx":-61,"dy":-23,"t":28513},{"dx":-16,"dy":-13,"t":28513},{"dx":-34,"dy":-26,"t":28703},{"dx":49,"dy":14,"t":28703},{"dx":42,"dy":3,"t":29108},{"dx":26,"dy":11,"t":29108},{"dx":28,"dy":-1,"t":29108},{"dx":33,"dy":-2,"t":29108},{"dx":29,"dy":-13,"t":29108},{"dx":30,"dy":-12,"t":29108},{"dx":31,"dy":-10,"t":29530},{"dx":15,"dy":18,"t":29530},{"dx":8,"dy":29,"t":29530},{"dx":1,"dy":37,"t":29530},{"dx":-5,"dy":44,"t":29530},{"dx":-10,"dy":49,"t":29530},{"dx":-15,"dy":53,"t":29530},{"dx":3,"dy":12,"t":29921},{"dx":-7,"dy":-11,"t":29921},{"dx":-27,"dy":-15,"t":29921},{"dx":-43,"dy":-19,"t":29921},{"dx":-57,"dy":-21,"t":29921},{"dx":-32,"dy":-24,"t":30073},{"dx":-9,"dy":-27,"t":30073},{"dx":10,"dy":-28,"t":30073},{"dx":-1,"dy":-8,"t":30290},{"dx":-7,"dy":-4,"t":30290},{"dx":9,"dy":-21,"t":30454},{"dx":20,"dy":-28,"t":30454},{"dx":28,"dy":-34,"t":30454},{"dx":35,"dy":-39,"t":30454},{"dx":20,"dy":-27,"t":30530}],[{"dx":108,"dy":14,"t":31657},{"dx":80,"dy":0,"t":31657},{"dx":77,"dy":-3,"t":31657},{"dx":71,"dy":-2,"t":31657},{"dx":78,"dy":-8,"t":32018},{"dx":94,"dy":-13,"t":32018},{"dx":102,"dy":-13,"t":32018},{"dx":110,"dy":-11,"t":32018},{"dx":117,"dy":-10,"t":32018},{"dx":124,"dy":-7,"t":32018},{"dx":120,"dy":-9,"t":32218},{"dx":113,"dy":-11,"t":32218},{"dx":111,"dy":-11,"t":32218},{"dx":75,"dy":7,"t":32418},{"dx":76,"dy":-12,"t":32418},{"dx":98,"dy":-19,"t":32418},{"dx":116,"dy":-17,"t":32690},{"dx":133,"dy":-7,"t":32690},{"dx":139,"dy":-3,"t":32690},{"dx":159,"dy":13,"t":32893},{"dx":176,"dy":26,"t":32893},{"dx":189,"dy":37,"t":32893},{"dx":134,"dy":59,"t":32893},{"dx":142,"dy":42,"t":32893},{"dx":117,"dy":54,"t":33237},{"dx":103,"dy":46,"t":33237},{"dx":98,"dy":43,"t":33237},{"dx":89,"dy":44,"t":33237},{"dx":87,"dy":40,"t":33237},{"dx":80,"dy":42,"t":33237},{"dx":110,"dy":54,"t":33441},{"dx":120,"dy":36,"t":33441},{"dx":133,"dy":31,"t":33441},{"dx":125,"dy":41,"t":33563}],[{"dx":160,"dy":-66,"t":34802},{"dx":190,"dy":-68,"t":34802},{"dx":196,"dy":-66,"t":34802},{"dx":197,"dy":-63,"t":34802},{"dx":194,"dy":-60,"t":34802},{"dx":188,"dy":-58,"t":35281},{"dx":172,"dy":-52,"t":35281},{"dx":163,"dy":-49,"t":35281},{"dx":155,"dy":-46,"t":35281},{"dx":147,"dy":-43,"t":35281},{"dx":139,"dy":-41,"t":35281},{"dx":133,"dy":-39,"t":35281},{"dx":127,"dy":-37,"t":35281},{"dx":122,"dy":-36,"t":35281},{"dx":111,"dy":-35,"t":35542},{"dx":106,"dy":-4,"t":35542},{"dx":106,"dy":7,"t":35542},{"dx":106,"dy":17,"t":35542},{"dx":127,"dy":22,"t":35743},{"dx":112,"dy":30,"t":35743},{"dx":101,"dy":23,"t":35743},{"dx":117,"dy":37,"t":35954},{"dx":111,"dy":22,"t":35954},{"dx":111,"dy":8,"t":35954},{"dx":108,"dy":-9,"t":36346},{"dx":101,"dy":-39,"t":36346},{"dx":100,"dy":-48,"t":36346},{"dx":99,"dy":-55,"t":36346},{"dx":98,"dy":-60,"t":36346},{"dx":98,"dy":-64,"t":36346},{"dx":97,"dy":-66,"t":36346},{"dx":108,"dy":-32,"t":36562},{"dx":117,"dy":15,"t":36562},{"dx":120,"dy":33,"t":36562}],[{"dx":167,"dy":-44,"t":37682},{"dx":103,"dy":-35,"t":37682},{"dx":56,"dy":-31,"t":37682},{"dx":-8,"dy":-53,"t":38084},{"dx":-35,"dy":-41,"t":38084},{"dx":-37,"dy":-38,"t":38084},{"dx":-34,"dy":-37,"t":38084},{"dx":-27,"dy":-37,"t":38084},{"dx":-18,"dy":-38,"t":38084},{"dx":-7,"dy":-40,"t":38084},{"dx":-37,"dy":-88,"t":38300},{"dx":11,"dy":-106,"t":38300},{"dx":46,"dy":-113,"t":38300},{"dx":48,"dy":-94,"t":38602},{"dx":102,"dy":-81,"t":38602},{"dx":156,"dy":-79,"t":38602},{"dx":201,"dy":-78,"t":38602},{"dx":237,"dy":-77,"t":38602},{"dx":238,"dy":-66,"t":38905},{"dx":231,"dy":-40,"t":38905},{"dx":244,"dy":-24,"t":38905},{"dx":254,"dy":-10,"t":38905},{"dx":260,"dy":0,"t":38905},{"dx":273,"dy":22,"t":39192},{"dx":262,"dy":23,"t":39192},{"dx":248,"dy":20,"t":39192},{"dx":265,"dy":12,"t":39601},{"dx":278,"dy":4,"t":39601},{"dx":289,"dy":-3,"t":39601},{"dx":247,"dy":0,"t":39601},{"dx":230,"dy":1,"t":39601},{"dx":215,"dy":2,"t":39601},{"dx":203,"dy":2,"t":39601},{"dx":193,"dy":2,"t":39601},{"dx":185,"dy":3,"t":39601},{"dx":180,"dy":3,"t":39601}]],"percent_in_roi":[47.368421052631575,63.888888888888886,17.142857142857142,78.78787878787878,88.57142857142857,87.5,100,60.60606060606061,14.285714285714285,100,91.17647058823529,70.58823529411765,38.88888888888889],"average_offset":[{"x":142.68421052631578,"y":19.789473684210527,"r":160.51812116942068},{"x":-95.36111111111111,"y":221,"r":230.36349822561596},{"x":192.6,"y":9.657142857142857,"r":75.99280309640498},{"x":26.21212121212121,"y":47,"r":88.43153229758909},{"x":54.142857142857146,"y":-74.11428571428571,"r":55.42463903576547},{"x":45.84375,"y":1.96875,"r":107.11110923993081},{"x":18.02857142857143,"y":-75.42857142857143,"r":44.185148488364},{"x":-39.121212121212125,"y":-77.78787878787878,"r":123.4858561029721},{"x":198.46428571428572,"y":-83.89285714285714,"r":147.67596307811635},{"x":2.90625,"y":-4.25,"r":44.35077242149025},{"x":111.88235294117646,"y":13.911764705882353,"r":50.687592650736576},{"x":130.5,"y":-27.11764705882353,"r":67.34488935529816},{"x":144.97222222222223,"y":-32.19444444444444,"r":168.7606970649703}],"samples_per_sec":"17.02","clicks":15,"pattern":"spread","trial_type":"webgazer-validate","trial_index":31,"time_elapsed":400854,"internal_node_id":"0.0-10.0-3.3","validation_points":[[50,50],[85,15],[37.5,62.5],[62.5,37.5],[62.5,62.5],[25,25],[85,85],[15,15],[15,85],[75,75],[37.5,37.5],[75,25],[25,75]],"user_agent":"Mozilla/5.0 (Macintosh; Intel Mac OS X 10.13; rv:88.0) Gecko/20100101 Firefox/88.0","screen_width_px":1280,"screen_height_px":800},{"rt":17908,"stimulus":"\n      <p>Round complete.</p>\n      <p>You can move a little bit, but please try to return you head to the same general location before continuing.</p>\n    ","response":0,"trial_type":"html-button-response","trial_index":32,"time_elapsed":418765,"internal_node_id":"0.0-10.0-4.3","user_agent":"Mozilla/5.0 (Macintosh; Intel Mac OS X 10.13; rv:88.0) Gecko/20100101 Firefox/88.0","screen_width_px":1280,"screen_height_px":800},{"trial_type":"webgazer-init-camera","trial_index":33,"time_elapsed":431283,"internal_node_id":"0.0-10.0-5.3","user_agent":"Mozilla/5.0 (Macintosh; Intel Mac OS X 10.13; rv:88.0) Gecko/20100101 Firefox/88.0","screen_width_px":1280,"screen_height_px":800},{"rt":1115,"stimulus":"\n      <p>Calibration phase next.</p>\n      <p>Click on the dots.</p>\n    ","response":0,"trial_type":"html-button-response","trial_index":34,"time_elapsed":432401,"internal_node_id":"0.0-10.0-0.4","user_agent":"Mozilla/5.0 (Macintosh; Intel Mac OS X 10.13; rv:88.0) Gecko/20100101 Firefox/88.0","screen_width_px":1280,"screen_height_px":800},{"trial_type":"webgazer-calibrate","trial_index":35,"time_elapsed":478412,"internal_node_id":"0.0-10.0-1.4","user_agent":"Mozilla/5.0 (Macintosh; Intel Mac OS X 10.13; rv:88.0) Gecko/20100101 Firefox/88.0","screen_width_px":1280,"screen_height_px":800},{"rt":1641,"stimulus":"\n      <p>Validation phase next.</p>\n      <p>Look at the dots.</p>\n    ","response":0,"trial_type":"html-button-response","trial_index":36,"time_elapsed":480054,"internal_node_id":"0.0-10.0-2.4","user_agent":"Mozilla/5.0 (Macintosh; Intel Mac OS X 10.13; rv:88.0) Gecko/20100101 Firefox/88.0","screen_width_px":1280,"screen_height_px":800},{"raw_gaze":[[{"dx":35,"dy":147,"t":1451},{"dx":20,"dy":146,"t":1451},{"dx":7,"dy":145,"t":1451},{"dx":-5,"dy":143,"t":1451},{"dx":-15,"dy":141,"t":1451},{"dx":-23,"dy":139,"t":1451},{"dx":-30,"dy":136,"t":1451},{"dx":-27,"dy":153,"t":1741},{"dx":-24,"dy":168,"t":1741},{"dx":-51,"dy":192,"t":1998},{"dx":-71,"dy":223,"t":1998},{"dx":-78,"dy":233,"t":1998},{"dx":-83,"dy":240,"t":1998},{"dx":-86,"dy":245,"t":1998},{"dx":-88,"dy":247,"t":1998},{"dx":-83,"dy":152,"t":2203},{"dx":-82,"dy":99,"t":2203},{"dx":-93,"dy":58,"t":2203},{"dx":-102,"dy":25,"t":2203},{"dx":-48,"dy":-9,"t":2472},{"dx":-16,"dy":-11,"t":2472},{"dx":11,"dy":-11,"t":2472},{"dx":37,"dy":67,"t":2735},{"dx":20,"dy":127,"t":2735},{"dx":4,"dy":178,"t":2735},{"dx":-10,"dy":221,"t":2735},{"dx":-23,"dy":255,"t":2735},{"dx":-4,"dy":171,"t":2735},{"dx":5,"dy":138,"t":3023},{"dx":25,"dy":145,"t":3023},{"dx":29,"dy":115,"t":3024},{"dx":-9,"dy":79,"t":3024},{"dx":-24,"dy":67,"t":3024},{"dx":-23,"dy":49,"t":3152},{"dx":-22,"dy":36,"t":3152},{"dx":-21,"dy":25,"t":3152}],[{"dx":208,"dy":134,"t":4196},{"dx":229,"dy":167,"t":4561},{"dx":228,"dy":186,"t":4561},{"dx":221,"dy":189,"t":4561},{"dx":211,"dy":190,"t":4561},{"dx":201,"dy":188,"t":4561},{"dx":189,"dy":185,"t":4561},{"dx":104,"dy":164,"t":5041},{"dx":89,"dy":178,"t":5041},{"dx":82,"dy":201,"t":5041},{"dx":76,"dy":221,"t":5041},{"dx":72,"dy":236,"t":5041},{"dx":69,"dy":248,"t":5041},{"dx":67,"dy":256,"t":5041},{"dx":58,"dy":234,"t":5247},{"dx":50,"dy":215,"t":5247},{"dx":45,"dy":197,"t":5247},{"dx":148,"dy":170,"t":5529},{"dx":198,"dy":154,"t":5529},{"dx":239,"dy":142,"t":5529},{"dx":227,"dy":52,"t":5820},{"dx":231,"dy":3,"t":5820},{"dx":233,"dy":-25,"t":5820},{"dx":233,"dy":-58,"t":5820},{"dx":233,"dy":-83,"t":5820},{"dx":178,"dy":-5,"t":6047},{"dx":141,"dy":9,"t":6047},{"dx":136,"dy":29,"t":6047},{"dx":119,"dy":37,"t":6047},{"dx":118,"dy":54,"t":6047},{"dx":39,"dy":106,"t":6178},{"dx":-25,"dy":127,"t":6178},{"dx":-77,"dy":144,"t":6178}],[{"dx":418,"dy":235,"t":7174},{"dx":343,"dy":195,"t":7561},{"dx":293,"dy":173,"t":7561},{"dx":253,"dy":155,"t":7561},{"dx":222,"dy":140,"t":7561},{"dx":192,"dy":98,"t":7762},{"dx":201,"dy":98,"t":7762},{"dx":212,"dy":99,"t":7762},{"dx":223,"dy":101,"t":7762},{"dx":234,"dy":103,"t":7762},{"dx":165,"dy":151,"t":8060},{"dx":78,"dy":188,"t":8060},{"dx":6,"dy":219,"t":8060},{"dx":199,"dy":242,"t":8060},{"dx":305,"dy":284,"t":8060},{"dx":305,"dy":251,"t":8329},{"dx":304,"dy":220,"t":8329},{"dx":300,"dy":193,"t":8329},{"dx":296,"dy":170,"t":8329},{"dx":415,"dy":108,"t":8329},{"dx":381,"dy":10,"t":8563},{"dx":349,"dy":-73,"t":8563},{"dx":321,"dy":-140,"t":8563},{"dx":295,"dy":-194,"t":8563},{"dx":338,"dy":-20,"t":8563},{"dx":361,"dy":-45,"t":8743},{"dx":379,"dy":-66,"t":8743},{"dx":394,"dy":-82,"t":8743},{"dx":385,"dy":16,"t":9032},{"dx":420,"dy":0,"t":9032},{"dx":443,"dy":19,"t":9032},{"dx":368,"dy":101,"t":9032},{"dx":309,"dy":95,"t":9032},{"dx":293,"dy":109,"t":9196},{"dx":280,"dy":120,"t":9196},{"dx":270,"dy":127,"t":9196},{"dx":263,"dy":133,"t":9196},{"dx":264,"dy":134,"t":9264}],[{"dx":64,"dy":5,"t":10420},{"dx":108,"dy":-34,"t":10420},{"dx":125,"dy":-47,"t":10420},{"dx":134,"dy":-48,"t":10420},{"dx":14,"dy":4,"t":10735},{"dx":88,"dy":12,"t":10735},{"dx":111,"dy":-2,"t":10735},{"dx":129,"dy":-6,"t":10735},{"dx":143,"dy":-9,"t":10735},{"dx":107,"dy":142,"t":11030},{"dx":104,"dy":141,"t":11030},{"dx":117,"dy":137,"t":11030},{"dx":127,"dy":133,"t":11030},{"dx":130,"dy":136,"t":11030},{"dx":160,"dy":161,"t":11542},{"dx":155,"dy":240,"t":11542},{"dx":190,"dy":290,"t":11542},{"dx":220,"dy":330,"t":11542},{"dx":244,"dy":362,"t":11542},{"dx":212,"dy":376,"t":11542},{"dx":183,"dy":384,"t":11542},{"dx":146,"dy":361,"t":11755},{"dx":113,"dy":338,"t":11755},{"dx":86,"dy":317,"t":11755},{"dx":64,"dy":299,"t":11755},{"dx":158,"dy":249,"t":11996},{"dx":240,"dy":279,"t":11996},{"dx":308,"dy":306,"t":11996},{"dx":281,"dy":207,"t":12272},{"dx":310,"dy":189,"t":12272},{"dx":332,"dy":174,"t":12272},{"dx":349,"dy":163,"t":12272},{"dx":303,"dy":78,"t":12272},{"dx":283,"dy":55,"t":12272},{"dx":281,"dy":39,"t":12343}],[{"dx":57,"dy":24,"t":13447},{"dx":37,"dy":27,"t":13447},{"dx":41,"dy":27,"t":13447},{"dx":56,"dy":32,"t":13447},{"dx":71,"dy":35,"t":13447},{"dx":85,"dy":8,"t":13982},{"dx":120,"dy":68,"t":13982},{"dx":134,"dy":90,"t":13982},{"dx":146,"dy":108,"t":13982},{"dx":156,"dy":123,"t":13982},{"dx":164,"dy":133,"t":13982},{"dx":171,"dy":141,"t":13982},{"dx":184,"dy":125,"t":14220},{"dx":194,"dy":111,"t":14220},{"dx":203,"dy":97,"t":14220},{"dx":209,"dy":85,"t":14220},{"dx":213,"dy":75,"t":14220},{"dx":152,"dy":88,"t":14220},{"dx":115,"dy":105,"t":14482},{"dx":83,"dy":119,"t":14482},{"dx":58,"dy":131,"t":14482},{"dx":37,"dy":54,"t":14482},{"dx":42,"dy":55,"t":14641},{"dx":48,"dy":57,"t":14641},{"dx":54,"dy":59,"t":14641},{"dx":60,"dy":61,"t":14641},{"dx":81,"dy":49,"t":14826},{"dx":97,"dy":27,"t":14826},{"dx":140,"dy":45,"t":15075},{"dx":171,"dy":58,"t":15075},{"dx":197,"dy":69,"t":15075},{"dx":152,"dy":36,"t":15243},{"dx":136,"dy":20,"t":15243},{"dx":123,"dy":6,"t":15243},{"dx":111,"dy":-5,"t":15243},{"dx":101,"dy":-13,"t":15243},{"dx":62,"dy":-25,"t":15312}],[{"dx":18,"dy":-86,"t":16322},{"dx":36,"dy":-114,"t":16322},{"dx":29,"dy":-124,"t":16691},{"dx":7,"dy":-136,"t":16691},{"dx":2,"dy":-131,"t":16691},{"dx":-4,"dy":-124,"t":16691},{"dx":-10,"dy":-117,"t":16691},{"dx":3,"dy":-115,"t":16691},{"dx":-13,"dy":-109,"t":16978},{"dx":29,"dy":-50,"t":16978},{"dx":7,"dy":-46,"t":16978},{"dx":-13,"dy":-43,"t":16978},{"dx":-31,"dy":-41,"t":16978},{"dx":-36,"dy":-41,"t":17226},{"dx":13,"dy":-6,"t":17226},{"dx":-7,"dy":-13,"t":17226},{"dx":-24,"dy":-19,"t":17226},{"dx":-74,"dy":-78,"t":17420},{"dx":-28,"dy":-83,"t":17420},{"dx":-43,"dy":-111,"t":17420},{"dx":-52,"dy":-62,"t":17698},{"dx":-2,"dy":-9,"t":17698},{"dx":9,"dy":9,"t":17698},{"dx":17,"dy":24,"t":17698},{"dx":23,"dy":36,"t":17698},{"dx":72,"dy":85,"t":17899},{"dx":124,"dy":108,"t":17899},{"dx":142,"dy":142,"t":17899},{"dx":99,"dy":109,"t":18088},{"dx":71,"dy":38,"t":18088},{"dx":27,"dy":-21,"t":18088},{"dx":58,"dy":-27,"t":18255},{"dx":29,"dy":-15,"t":18255}],[{"dx":-94,"dy":110,"t":19328},{"dx":-97,"dy":120,"t":19328},{"dx":-68,"dy":144,"t":19587},{"dx":-84,"dy":130,"t":19587},{"dx":-89,"dy":119,"t":19587},{"dx":-94,"dy":107,"t":19587},{"dx":-111,"dy":82,"t":19799},{"dx":-111,"dy":79,"t":19799},{"dx":-96,"dy":85,"t":19799},{"dx":-93,"dy":68,"t":20101},{"dx":-83,"dy":33,"t":20101},{"dx":-79,"dy":18,"t":20101},{"dx":-76,"dy":7,"t":20101},{"dx":-74,"dy":-3,"t":20101},{"dx":-91,"dy":-3,"t":20419},{"dx":-76,"dy":23,"t":20419},{"dx":-75,"dy":38,"t":20419},{"dx":-74,"dy":51,"t":20419},{"dx":-74,"dy":61,"t":20419},{"dx":-73,"dy":70,"t":20419},{"dx":1,"dy":51,"t":20664},{"dx":-20,"dy":74,"t":20664},{"dx":-23,"dy":91,"t":20664},{"dx":-26,"dy":105,"t":20664},{"dx":-9,"dy":118,"t":20902},{"dx":-13,"dy":93,"t":20902},{"dx":4,"dy":93,"t":20902},{"dx":13,"dy":79,"t":20902},{"dx":79,"dy":13,"t":21104},{"dx":2,"dy":40,"t":21104},{"dx":-30,"dy":52,"t":21104},{"dx":2,"dy":8,"t":21271},{"dx":-51,"dy":38,"t":21271}],[{"dx":-167,"dy":92,"t":22295},{"dx":-188,"dy":121,"t":22588},{"dx":-288,"dy":133,"t":22588},{"dx":-315,"dy":142,"t":22588},{"dx":-331,"dy":151,"t":22588},{"dx":-336,"dy":161,"t":22588},{"dx":-233,"dy":149,"t":22841},{"dx":-159,"dy":124,"t":22841},{"dx":-107,"dy":121,"t":22841},{"dx":-61,"dy":120,"t":22841},{"dx":-41,"dy":76,"t":23150},{"dx":-2,"dy":103,"t":23150},{"dx":18,"dy":112,"t":23150},{"dx":35,"dy":120,"t":23150},{"dx":47,"dy":128,"t":23150},{"dx":45,"dy":187,"t":23360},{"dx":26,"dy":233,"t":23360},{"dx":15,"dy":246,"t":23360},{"dx":14,"dy":267,"t":23581},{"dx":24,"dy":181,"t":23581},{"dx":28,"dy":146,"t":23581},{"dx":32,"dy":147,"t":23791},{"dx":33,"dy":146,"t":23791},{"dx":14,"dy":117,"t":23791},{"dx":12,"dy":68,"t":24110},{"dx":-26,"dy":8,"t":24110},{"dx":-40,"dy":-13,"t":24110},{"dx":-52,"dy":-28,"t":24110},{"dx":-61,"dy":-39,"t":24110},{"dx":-23,"dy":19,"t":24268},{"dx":-15,"dy":90,"t":24268}],[{"dx":95,"dy":-71,"t":25397},{"dx":109,"dy":-52,"t":25397},{"dx":114,"dy":-38,"t":25397},{"dx":74,"dy":-23,"t":25675},{"dx":68,"dy":-37,"t":25675},{"dx":69,"dy":-46,"t":25675},{"dx":67,"dy":-54,"t":25675},{"dx":2,"dy":-25,"t":26097},{"dx":18,"dy":-19,"t":26097},{"dx":29,"dy":-10,"t":26097},{"dx":37,"dy":-3,"t":26097},{"dx":44,"dy":2,"t":26097},{"dx":49,"dy":6,"t":26097},{"dx":53,"dy":8,"t":26097},{"dx":-109,"dy":106,"t":26401},{"dx":-104,"dy":90,"t":26401},{"dx":-113,"dy":69,"t":26401},{"dx":-120,"dy":50,"t":26401},{"dx":-124,"dy":33,"t":26401},{"dx":-44,"dy":83,"t":26704},{"dx":20,"dy":42,"t":26704},{"dx":42,"dy":37,"t":26704},{"dx":60,"dy":32,"t":26704},{"dx":74,"dy":29,"t":26704},{"dx":88,"dy":23,"t":26971},{"dx":40,"dy":6,"t":26971},{"dx":12,"dy":2,"t":26971},{"dx":-12,"dy":-1,"t":26971},{"dx":-58,"dy":-23,"t":27236},{"dx":-36,"dy":-46,"t":27236},{"dx":-20,"dy":-39,"t":27236},{"dx":-7,"dy":-32,"t":27236},{"dx":25,"dy":-47,"t":27359}],[{"dx":-12,"dy":43,"t":28423},{"dx":-102,"dy":98,"t":28753},{"dx":-159,"dy":96,"t":28753},{"dx":-169,"dy":80,"t":28753},{"dx":-172,"dy":65,"t":28753},{"dx":-240,"dy":49,"t":29032},{"dx":-193,"dy":32,"t":29032},{"dx":-173,"dy":26,"t":29032},{"dx":-153,"dy":21,"t":29032},{"dx":-128,"dy":30,"t":29258},{"dx":-139,"dy":65,"t":29258},{"dx":-154,"dy":71,"t":29258},{"dx":-122,"dy":28,"t":29729},{"dx":-51,"dy":65,"t":29729},{"dx":-32,"dy":77,"t":29729},{"dx":-8,"dy":91,"t":29729},{"dx":11,"dy":103,"t":29729},{"dx":25,"dy":113,"t":29729},{"dx":113,"dy":104,"t":29929},{"dx":186,"dy":96,"t":29929},{"dx":245,"dy":89,"t":29929},{"dx":91,"dy":107,"t":30132},{"dx":39,"dy":120,"t":30132},{"dx":-6,"dy":132,"t":30132},{"dx":-32,"dy":143,"t":30383},{"dx":-20,"dy":144,"t":30383},{"dx":-9,"dy":144,"t":30383},{"dx":-32,"dy":145,"t":30383},{"dx":-42,"dy":121,"t":30467},{"dx":-50,"dy":100,"t":30467}],[{"dx":-42,"dy":-65,"t":31479},{"dx":-21,"dy":-92,"t":31479},{"dx":-6,"dy":-112,"t":31780},{"dx":58,"dy":-209,"t":31780},{"dx":47,"dy":-266,"t":31780},{"dx":34,"dy":-310,"t":31780},{"dx":22,"dy":-268,"t":32209},{"dx":37,"dy":-287,"t":32209},{"dx":34,"dy":-293,"t":32209},{"dx":31,"dy":-295,"t":32209},{"dx":26,"dy":-294,"t":32209},{"dx":21,"dy":-292,"t":32209},{"dx":17,"dy":-288,"t":32209},{"dx":27,"dy":-248,"t":32690},{"dx":85,"dy":-202,"t":32690},{"dx":99,"dy":-171,"t":32690},{"dx":110,"dy":-146,"t":32690},{"dx":118,"dy":-125,"t":32690},{"dx":123,"dy":-109,"t":32690},{"dx":126,"dy":-96,"t":32690},{"dx":161,"dy":-62,"t":32845},{"dx":190,"dy":-35,"t":32845},{"dx":212,"dy":-14,"t":32845},{"dx":100,"dy":-16,"t":33038},{"dx":36,"dy":-21,"t":33038},{"dx":-59,"dy":-36,"t":33241},{"dx":-81,"dy":-56,"t":33241},{"dx":-96,"dy":-74,"t":33241},{"dx":-26,"dy":-101,"t":33404},{"dx":23,"dy":-102,"t":33404},{"dx":65,"dy":-102,"t":33404},{"dx":53,"dy":-93,"t":33480}],[{"dx":15,"dy":58,"t":34490},{"dx":-70,"dy":85,"t":34490},{"dx":-134,"dy":102,"t":34490},{"dx":-172,"dy":104,"t":34801},{"dx":-186,"dy":122,"t":34801},{"dx":-180,"dy":113,"t":34801},{"dx":-166,"dy":105,"t":34801},{"dx":-149,"dy":96,"t":34801},{"dx":-147,"dy":43,"t":35029},{"dx":-142,"dy":56,"t":35029},{"dx":-138,"dy":61,"t":35029},{"dx":-66,"dy":42,"t":35416},{"dx":-65,"dy":67,"t":35416},{"dx":-54,"dy":69,"t":35416},{"dx":-45,"dy":71,"t":35416},{"dx":-37,"dy":71,"t":35416},{"dx":-31,"dy":71,"t":35416},{"dx":-27,"dy":71,"t":35416},{"dx":36,"dy":61,"t":35629},{"dx":-12,"dy":31,"t":35629},{"dx":-32,"dy":19,"t":35629},{"dx":-55,"dy":-9,"t":35883},{"dx":-66,"dy":-5,"t":35883},{"dx":-85,"dy":1,"t":35883},{"dx":-112,"dy":7,"t":35883},{"dx":-151,"dy":-32,"t":36187},{"dx":-127,"dy":9,"t":36187},{"dx":-127,"dy":5,"t":36187},{"dx":-127,"dy":2,"t":36187},{"dx":-125,"dy":0,"t":36187},{"dx":-60,"dy":9,"t":36447},{"dx":-38,"dy":59,"t":36447},{"dx":-30,"dy":67,"t":36447},{"dx":-24,"dy":72,"t":36447}],[{"dx":-55,"dy":248,"t":37430},{"dx":-89,"dy":226,"t":37611},{"dx":-41,"dy":232,"t":37611},{"dx":10,"dy":205,"t":37933},{"dx":-7,"dy":212,"t":37933},{"dx":-17,"dy":217,"t":37933},{"dx":-26,"dy":222,"t":37933},{"dx":-34,"dy":227,"t":37933},{"dx":-11,"dy":269,"t":38161},{"dx":41,"dy":249,"t":38161},{"dx":56,"dy":220,"t":38161},{"dx":77,"dy":198,"t":38491},{"dx":78,"dy":206,"t":38491},{"dx":76,"dy":210,"t":38491},{"dx":73,"dy":214,"t":38491},{"dx":70,"dy":218,"t":38491},{"dx":43,"dy":232,"t":38795},{"dx":16,"dy":243,"t":38795},{"dx":8,"dy":252,"t":38795},{"dx":1,"dy":259,"t":38795},{"dx":-4,"dy":264,"t":38795},{"dx":0,"dy":166,"t":39287},{"dx":12,"dy":190,"t":39287},{"dx":-2,"dy":211,"t":39287},{"dx":-15,"dy":229,"t":39287},{"dx":-25,"dy":244,"t":39287},{"dx":-33,"dy":257,"t":39287},{"dx":-40,"dy":267,"t":39287}]],"percent_in_roi":[61.111111111111114,18.181818181818183,0,25.71428571428571,59.45945945945946,93.93939393939394,90.9090909090909,51.61290322580645,96.96969696969697,60,37.5,70.58823529411765,0],"average_offset":[{"x":-26.333333333333332,"y":129.83333333333334,"r":95.48068385156816},{"x":138.4848484848485,"y":128.63636363636363,"r":106.31815050893255},{"x":291.5,"y":96.5,"r":185.39663059443978},{"x":174.82857142857142,"y":164.6,"r":174.17877749775442},{"x":115.16216216216216,"y":62.2972972972973,"r":67.37074576515032},{"x":14.484848484848484,"y":-35.45454545454545,"r":71.58838058706212},{"x":-54.03030303030303,"y":66.48484848484848,"r":57.16742765076712},{"x":-67.80645161290323,"y":117.03225806451613,"r":111.89413106180773},{"x":13.393939393939394,"y":1.5757575757575757,"r":65.39925414412535},{"x":-49.6,"y":86.6,"r":138.5441597271475},{"x":47.625,"y":-152.5,"r":180.9361063167902},{"x":-86.1470588235294,"y":50.088235294117645,"r":91.47552491450816},{"x":5.785714285714286,"y":228.10714285714286,"r":60.27400893707187}],"samples_per_sec":"16.52","clicks":25,"pattern":"spread","trial_type":"webgazer-validate","trial_index":37,"time_elapsed":520406,"internal_node_id":"0.0-10.0-3.4","validation_points":[[37.5,37.5],[75,75],[37.5,62.5],[75,25],[50,50],[85,15],[85,85],[15,15],[62.5,62.5],[25,75],[62.5,37.5],[15,85],[25,25]],"user_agent":"Mozilla/5.0 (Macintosh; Intel Mac OS X 10.13; rv:88.0) Gecko/20100101 Firefox/88.0","screen_width_px":1280,"screen_height_px":800},{"rt":11546,"stimulus":"\n      <p>Round complete.</p>\n      <p>You can move a little bit, but please try to return you head to the same general location before continuing.</p>\n    ","response":0,"trial_type":"html-button-response","trial_index":38,"time_elapsed":531955,"internal_node_id":"0.0-10.0-4.4","user_agent":"Mozilla/5.0 (Macintosh; Intel Mac OS X 10.13; rv:88.0) Gecko/20100101 Firefox/88.0","screen_width_px":1280,"screen_height_px":800},{"trial_type":"webgazer-init-camera","trial_index":39,"time_elapsed":534940,"internal_node_id":"0.0-10.0-5.4","user_agent":"Mozilla/5.0 (Macintosh; Intel Mac OS X 10.13; rv:88.0) Gecko/20100101 Firefox/88.0","screen_width_px":1280,"screen_height_px":800},{"rt":1050,"stimulus":"\n      <p>Calibration phase next.</p>\n      <p>Click on the dots.</p>\n    ","response":0,"trial_type":"html-button-response","trial_index":40,"time_elapsed":535993,"internal_node_id":"0.0-10.0-0.5","user_agent":"Mozilla/5.0 (Macintosh; Intel Mac OS X 10.13; rv:88.0) Gecko/20100101 Firefox/88.0","screen_width_px":1280,"screen_height_px":800},{"trial_type":"webgazer-calibrate","trial_index":41,"time_elapsed":568419,"internal_node_id":"0.0-10.0-1.5","user_agent":"Mozilla/5.0 (Macintosh; Intel Mac OS X 10.13; rv:88.0) Gecko/20100101 Firefox/88.0","screen_width_px":1280,"screen_height_px":800},{"rt":1024,"stimulus":"\n      <p>Validation phase next.</p>\n      <p>Look at the dots.</p>\n    ","response":0,"trial_type":"html-button-response","trial_index":42,"time_elapsed":569442,"internal_node_id":"0.0-10.0-2.5","user_agent":"Mozilla/5.0 (Macintosh; Intel Mac OS X 10.13; rv:88.0) Gecko/20100101 Firefox/88.0","screen_width_px":1280,"screen_height_px":800},{"raw_gaze":[[{"dx":1,"dy":10,"t":1172},{"dx":92,"dy":64,"t":1372},{"dx":168,"dy":110,"t":1372},{"dx":268,"dy":166,"t":1607},{"dx":306,"dy":188,"t":1607},{"dx":334,"dy":204,"t":1607},{"dx":314,"dy":235,"t":1950},{"dx":287,"dy":242,"t":1950},{"dx":262,"dy":246,"t":1950},{"dx":239,"dy":248,"t":1950},{"dx":116,"dy":209,"t":1950},{"dx":81,"dy":191,"t":1950},{"dx":178,"dy":190,"t":2238},{"dx":262,"dy":189,"t":2238},{"dx":334,"dy":189,"t":2238},{"dx":394,"dy":188,"t":2238},{"dx":229,"dy":182,"t":2238},{"dx":156,"dy":176,"t":2238},{"dx":108,"dy":192,"t":2544},{"dx":69,"dy":206,"t":2544},{"dx":38,"dy":218,"t":2544},{"dx":7,"dy":202,"t":2544},{"dx":-1,"dy":195,"t":2544},{"dx":-6,"dy":202,"t":2898},{"dx":-8,"dy":208,"t":2898},{"dx":-8,"dy":213,"t":2898},{"dx":-6,"dy":217,"t":2898},{"dx":-32,"dy":155,"t":2898},{"dx":-48,"dy":132,"t":2898},{"dx":-61,"dy":113,"t":2898},{"dx":-20,"dy":118,"t":3180},{"dx":17,"dy":123,"t":3180},{"dx":48,"dy":128,"t":3180},{"dx":75,"dy":134,"t":3180},{"dx":2,"dy":98,"t":3180},{"dx":-21,"dy":94,"t":3180},{"dx":-40,"dy":92,"t":3180},{"dx":-56,"dy":90,"t":3180}],[{"dx":-52,"dy":247,"t":4172},{"dx":0,"dy":212,"t":4478},{"dx":24,"dy":176,"t":4478},{"dx":33,"dy":169,"t":4478},{"dx":37,"dy":164,"t":4478},{"dx":26,"dy":153,"t":4773},{"dx":-29,"dy":193,"t":4773},{"dx":-46,"dy":220,"t":4773},{"dx":3,"dy":178,"t":5007},{"dx":45,"dy":142,"t":5007},{"dx":-11,"dy":142,"t":5007},{"dx":-34,"dy":124,"t":5167},{"dx":-54,"dy":110,"t":5167},{"dx":-45,"dy":76,"t":5167},{"dx":-73,"dy":129,"t":5380},{"dx":-56,"dy":126,"t":5380},{"dx":-112,"dy":144,"t":5580},{"dx":-121,"dy":141,"t":5580},{"dx":-125,"dy":136,"t":5580},{"dx":-130,"dy":135,"t":5580},{"dx":-95,"dy":161,"t":5774},{"dx":-42,"dy":156,"t":5774},{"dx":4,"dy":152,"t":5774},{"dx":-3,"dy":193,"t":6051},{"dx":0,"dy":197,"t":6051},{"dx":46,"dy":170,"t":6051},{"dx":49,"dy":175,"t":6051},{"dx":13,"dy":174,"t":6051},{"dx":30,"dy":168,"t":6184},{"dx":45,"dy":149,"t":6184},{"dx":56,"dy":147,"t":6184}],[{"dx":108,"dy":130,"t":7338},{"dx":79,"dy":147,"t":7338},{"dx":74,"dy":145,"t":7338},{"dx":41,"dy":98,"t":7610},{"dx":28,"dy":99,"t":7610},{"dx":31,"dy":101,"t":7610},{"dx":36,"dy":101,"t":7610},{"dx":-29,"dy":76,"t":7874},{"dx":41,"dy":108,"t":7874},{"dx":72,"dy":120,"t":7874},{"dx":98,"dy":130,"t":7874},{"dx":110,"dy":149,"t":8301},{"dx":89,"dy":107,"t":8301},{"dx":80,"dy":89,"t":8301},{"dx":73,"dy":74,"t":8301},{"dx":66,"dy":62,"t":8301},{"dx":229,"dy":47,"t":8504},{"dx":368,"dy":36,"t":8504},{"dx":483,"dy":26,"t":8504},{"dx":577,"dy":19,"t":8504},{"dx":408,"dy":36,"t":8771},{"dx":343,"dy":52,"t":8771},{"dx":285,"dy":66,"t":8771},{"dx":227,"dy":87,"t":8771},{"dx":204,"dy":96,"t":8771},{"dx":204,"dy":111,"t":9075},{"dx":206,"dy":124,"t":9075},{"dx":208,"dy":134,"t":9075},{"dx":187,"dy":142,"t":9075},{"dx":185,"dy":153,"t":9075},{"dx":136,"dy":117,"t":9203},{"dx":95,"dy":86,"t":9203},{"dx":62,"dy":60,"t":9203},{"dx":36,"dy":38,"t":9203}],[{"dx":11,"dy":191,"t":10302},{"dx":0,"dy":190,"t":10302},{"dx":-8,"dy":191,"t":10302},{"dx":19,"dy":198,"t":10532},{"dx":-6,"dy":170,"t":10532},{"dx":-13,"dy":171,"t":10532},{"dx":-6,"dy":175,"t":10803},{"dx":-17,"dy":171,"t":10803},{"dx":-25,"dy":169,"t":10803},{"dx":-31,"dy":167,"t":10803},{"dx":-24,"dy":170,"t":11188},{"dx":12,"dy":145,"t":11188},{"dx":27,"dy":136,"t":11188},{"dx":39,"dy":129,"t":11188},{"dx":49,"dy":123,"t":11188},{"dx":57,"dy":119,"t":11188},{"dx":48,"dy":126,"t":11747},{"dx":36,"dy":148,"t":11747},{"dx":30,"dy":156,"t":11747},{"dx":25,"dy":164,"t":11747},{"dx":21,"dy":170,"t":11747},{"dx":18,"dy":175,"t":11747},{"dx":15,"dy":178,"t":11747},{"dx":13,"dy":181,"t":11747},{"dx":12,"dy":183,"t":11747},{"dx":3,"dy":160,"t":11900},{"dx":-5,"dy":140,"t":11900},{"dx":-11,"dy":123,"t":11900},{"dx":3,"dy":131,"t":12116},{"dx":6,"dy":144,"t":12116},{"dx":0,"dy":146,"t":12243},{"dx":5,"dy":150,"t":12243},{"dx":-2,"dy":152,"t":12243},{"dx":3,"dy":155,"t":12243}],[{"dx":123,"dy":174,"t":13255},{"dx":139,"dy":181,"t":13255},{"dx":176,"dy":132,"t":13478},{"dx":127,"dy":163,"t":13478},{"dx":104,"dy":144,"t":13478},{"dx":58,"dy":152,"t":13954},{"dx":23,"dy":208,"t":13954},{"dx":8,"dy":229,"t":13954},{"dx":-5,"dy":247,"t":13954},{"dx":-15,"dy":260,"t":13954},{"dx":-24,"dy":271,"t":13954},{"dx":-136,"dy":276,"t":14188},{"dx":-231,"dy":279,"t":14188},{"dx":-310,"dy":280,"t":14188},{"dx":-312,"dy":221,"t":14440},{"dx":-328,"dy":206,"t":14440},{"dx":-339,"dy":193,"t":14440},{"dx":-345,"dy":182,"t":14440},{"dx":-202,"dy":151,"t":14440},{"dx":-224,"dy":143,"t":14710},{"dx":-243,"dy":138,"t":14710},{"dx":-259,"dy":134,"t":14710},{"dx":-154,"dy":110,"t":14710},{"dx":-109,"dy":124,"t":14935},{"dx":-72,"dy":136,"t":14935},{"dx":-42,"dy":148,"t":14935},{"dx":-18,"dy":158,"t":14935},{"dx":19,"dy":160,"t":15212},{"dx":47,"dy":158,"t":15212},{"dx":69,"dy":156,"t":15212},{"dx":85,"dy":154,"t":15212},{"dx":69,"dy":121,"t":15212},{"dx":60,"dy":108,"t":15212},{"dx":64,"dy":119,"t":15337},{"dx":66,"dy":130,"t":15337},{"dx":67,"dy":139,"t":15337}],[{"dx":-42,"dy":54,"t":16288},{"dx":-104,"dy":29,"t":16525},{"dx":-92,"dy":46,"t":16525},{"dx":-80,"dy":49,"t":16525},{"dx":-120,"dy":-2,"t":16860},{"dx":-69,"dy":3,"t":16860},{"dx":-53,"dy":21,"t":16860},{"dx":-38,"dy":37,"t":16860},{"dx":-24,"dy":49,"t":16860},{"dx":-36,"dy":30,"t":17186},{"dx":56,"dy":25,"t":17186},{"dx":86,"dy":25,"t":17186},{"dx":124,"dy":21,"t":17186},{"dx":141,"dy":20,"t":17186},{"dx":164,"dy":21,"t":17499},{"dx":178,"dy":29,"t":17499},{"dx":178,"dy":34,"t":17499},{"dx":182,"dy":33,"t":17499},{"dx":184,"dy":32,"t":17499},{"dx":143,"dy":7,"t":17761},{"dx":146,"dy":-25,"t":17761},{"dx":147,"dy":-37,"t":17761},{"dx":124,"dy":-23,"t":17933},{"dx":104,"dy":-10,"t":17933},{"dx":144,"dy":45,"t":17933},{"dx":160,"dy":61,"t":18185},{"dx":195,"dy":26,"t":18185},{"dx":206,"dy":12,"t":18185},{"dx":215,"dy":0,"t":18185},{"dx":201,"dy":16,"t":18376},{"dx":150,"dy":56,"t":18376}],[{"dx":-46,"dy":44,"t":19356},{"dx":-125,"dy":44,"t":19680},{"dx":-163,"dy":-15,"t":19680},{"dx":-151,"dy":-38,"t":19680},{"dx":-136,"dy":-53,"t":19680},{"dx":-122,"dy":-63,"t":19680},{"dx":-9,"dy":-33,"t":19937},{"dx":-18,"dy":-40,"t":19937},{"dx":-2,"dy":-30,"t":19937},{"dx":11,"dy":-6,"t":19937},{"dx":60,"dy":9,"t":20236},{"dx":22,"dy":35,"t":20236},{"dx":4,"dy":48,"t":20236},{"dx":-12,"dy":59,"t":20236},{"dx":-26,"dy":67,"t":20236},{"dx":10,"dy":123,"t":20553},{"dx":29,"dy":101,"t":20553},{"dx":18,"dy":84,"t":20553},{"dx":21,"dy":74,"t":20553},{"dx":23,"dy":64,"t":20553},{"dx":101,"dy":88,"t":20875},{"dx":100,"dy":81,"t":20875},{"dx":72,"dy":68,"t":20875},{"dx":47,"dy":57,"t":20875},{"dx":25,"dy":47,"t":20875},{"dx":110,"dy":49,"t":21147},{"dx":89,"dy":62,"t":21147},{"dx":102,"dy":48,"t":21147},{"dx":87,"dy":65,"t":21147},{"dx":89,"dy":74,"t":21413},{"dx":124,"dy":55,"t":21413},{"dx":117,"dy":23,"t":21413},{"dx":126,"dy":18,"t":21413}],[{"dx":4,"dy":33,"t":22585},{"dx":145,"dy":83,"t":22585},{"dx":188,"dy":95,"t":22585},{"dx":216,"dy":101,"t":22585},{"dx":200,"dy":93,"t":22794},{"dx":197,"dy":79,"t":22794},{"dx":188,"dy":70,"t":22794},{"dx":165,"dy":60,"t":23007},{"dx":72,"dy":79,"t":23007},{"dx":33,"dy":85,"t":23007},{"dx":11,"dy":75,"t":23263},{"dx":-15,"dy":56,"t":23263},{"dx":-24,"dy":48,"t":23263},{"dx":-31,"dy":41,"t":23263},{"dx":-1,"dy":22,"t":23774},{"dx":17,"dy":-11,"t":23774},{"dx":25,"dy":-23,"t":23774},{"dx":31,"dy":-32,"t":23774},{"dx":36,"dy":-39,"t":23774},{"dx":41,"dy":-44,"t":23774},{"dx":44,"dy":-47,"t":23774},{"dx":90,"dy":-44,"t":23980},{"dx":128,"dy":-41,"t":23980},{"dx":160,"dy":-37,"t":23980},{"dx":185,"dy":-34,"t":23980},{"dx":192,"dy":-26,"t":24137},{"dx":201,"dy":-40,"t":24137},{"dx":208,"dy":-53,"t":24137},{"dx":158,"dy":-5,"t":24402},{"dx":127,"dy":-26,"t":24402},{"dx":74,"dy":8,"t":24402},{"dx":79,"dy":-3,"t":24493},{"dx":84,"dy":-14,"t":24493},{"dx":90,"dy":-22,"t":24493}],[{"dx":340,"dy":-16,"t":25572},{"dx":184,"dy":13,"t":25572},{"dx":133,"dy":24,"t":25572},{"dx":82,"dy":-1,"t":25999},{"dx":103,"dy":-9,"t":25999},{"dx":139,"dy":-15,"t":25999},{"dx":175,"dy":-19,"t":25999},{"dx":208,"dy":-24,"t":25999},{"dx":232,"dy":-32,"t":26304},{"dx":239,"dy":-25,"t":26304},{"dx":243,"dy":-21,"t":26304},{"dx":246,"dy":-19,"t":26304},{"dx":257,"dy":-2,"t":26658},{"dx":297,"dy":41,"t":26658},{"dx":313,"dy":56,"t":26658},{"dx":325,"dy":69,"t":26658},{"dx":297,"dy":26,"t":27055},{"dx":303,"dy":18,"t":27055},{"dx":305,"dy":14,"t":27055},{"dx":319,"dy":-3,"t":27233},{"dx":331,"dy":-18,"t":27233},{"dx":341,"dy":-30,"t":27233},{"dx":325,"dy":-26,"t":27421},{"dx":316,"dy":-26,"t":27421},{"dx":344,"dy":-11,"t":27421}],[{"dx":121,"dy":-33,"t":28573},{"dx":157,"dy":-49,"t":28573},{"dx":184,"dy":-58,"t":28573},{"dx":185,"dy":-67,"t":29123},{"dx":154,"dy":-8,"t":29123},{"dx":137,"dy":18,"t":29123},{"dx":122,"dy":41,"t":29123},{"dx":107,"dy":61,"t":29123},{"dx":93,"dy":78,"t":29123},{"dx":99,"dy":77,"t":29531},{"dx":104,"dy":76,"t":29531},{"dx":107,"dy":74,"t":29531},{"dx":110,"dy":72,"t":29532},{"dx":121,"dy":70,"t":29532},{"dx":147,"dy":74,"t":29927},{"dx":169,"dy":78,"t":29927},{"dx":187,"dy":81,"t":29927},{"dx":201,"dy":84,"t":29927},{"dx":212,"dy":86,"t":29927},{"dx":197,"dy":92,"t":29927},{"dx":205,"dy":92,"t":29927},{"dx":190,"dy":76,"t":30228},{"dx":177,"dy":63,"t":30228},{"dx":166,"dy":51,"t":30228},{"dx":156,"dy":41,"t":30228},{"dx":118,"dy":42,"t":30228},{"dx":44,"dy":36,"t":30470},{"dx":-21,"dy":16,"t":30470},{"dx":-72,"dy":14,"t":30470},{"dx":-113,"dy":13,"t":30470},{"dx":-122,"dy":13,"t":30470},{"dx":-151,"dy":18,"t":30551}],[{"dx":49,"dy":103,"t":31611},{"dx":71,"dy":130,"t":31611},{"dx":89,"dy":150,"t":31611},{"dx":103,"dy":165,"t":31611},{"dx":114,"dy":175,"t":31611},{"dx":98,"dy":173,"t":32028},{"dx":69,"dy":164,"t":32028},{"dx":56,"dy":158,"t":32028},{"dx":46,"dy":152,"t":32028},{"dx":37,"dy":146,"t":32028},{"dx":30,"dy":140,"t":32028},{"dx":24,"dy":134,"t":32028},{"dx":39,"dy":112,"t":32231},{"dx":31,"dy":54,"t":32231},{"dx":18,"dy":42,"t":32678},{"dx":0,"dy":31,"t":32678},{"dx":-7,"dy":26,"t":32678},{"dx":-12,"dy":23,"t":32678},{"dx":-26,"dy":32,"t":32911},{"dx":-37,"dy":40,"t":32911},{"dx":-46,"dy":48,"t":32911},{"dx":-62,"dy":55,"t":33082},{"dx":-69,"dy":56,"t":33082},{"dx":-75,"dy":56,"t":33082},{"dx":-90,"dy":9,"t":33286},{"dx":-99,"dy":-12,"t":33286},{"dx":-66,"dy":4,"t":33477},{"dx":-31,"dy":27,"t":33477},{"dx":0,"dy":46,"t":33477},{"dx":45,"dy":55,"t":33477}],[{"dx":113,"dy":-45,"t":34466},{"dx":198,"dy":-50,"t":34810},{"dx":205,"dy":-68,"t":34810},{"dx":202,"dy":-75,"t":34810},{"dx":196,"dy":-82,"t":34810},{"dx":187,"dy":-88,"t":34810},{"dx":178,"dy":-100,"t":35105},{"dx":111,"dy":-74,"t":35105},{"dx":84,"dy":-64,"t":35105},{"dx":56,"dy":-62,"t":35105},{"dx":35,"dy":-55,"t":35349},{"dx":26,"dy":-26,"t":35349},{"dx":30,"dy":-3,"t":35349},{"dx":17,"dy":-9,"t":35641},{"dx":6,"dy":-19,"t":35641},{"dx":-3,"dy":-19,"t":35641},{"dx":-9,"dy":-19,"t":35641},{"dx":-6,"dy":-53,"t":35870},{"dx":-35,"dy":-71,"t":35871},{"dx":-43,"dy":-83,"t":35871},{"dx":-16,"dy":-101,"t":36102},{"dx":21,"dy":-120,"t":36102},{"dx":36,"dy":-152,"t":36355},{"dx":48,"dy":-178,"t":36355},{"dx":38,"dy":-153,"t":36355},{"dx":25,"dy":-148,"t":36482},{"dx":13,"dy":-143,"t":36482},{"dx":3,"dy":-138,"t":36482}],[{"dx":-49,"dy":115,"t":37644},{"dx":-91,"dy":67,"t":37644},{"dx":-99,"dy":51,"t":37644},{"dx":-100,"dy":39,"t":37644},{"dx":-106,"dy":34,"t":37916},{"dx":-87,"dy":45,"t":37916},{"dx":-71,"dy":50,"t":37916},{"dx":-55,"dy":56,"t":37916},{"dx":-49,"dy":40,"t":38181},{"dx":-31,"dy":21,"t":38181},{"dx":-27,"dy":13,"t":38181},{"dx":-15,"dy":11,"t":38181},{"dx":7,"dy":21,"t":38408},{"dx":10,"dy":40,"t":38408},{"dx":10,"dy":47,"t":38408},{"dx":21,"dy":64,"t":38770},{"dx":39,"dy":92,"t":38770},{"dx":47,"dy":104,"t":38770},{"dx":53,"dy":113,"t":38770},{"dx":58,"dy":120,"t":38770},{"dx":61,"dy":125,"t":38770},{"dx":37,"dy":116,"t":39167},{"dx":19,"dy":118,"t":39167},{"dx":23,"dy":112,"t":39167},{"dx":27,"dy":106,"t":39167},{"dx":31,"dy":101,"t":39167},{"dx":34,"dy":96,"t":39167},{"dx":37,"dy":92,"t":39167},{"dx":23,"dy":66,"t":39398},{"dx":10,"dy":77,"t":39398},{"dx":-1,"dy":88,"t":39398}]],"percent_in_roi":[28.947368421052634,22.58064516129032,41.17647058823529,32.35294117647059,11.11111111111111,58.06451612903226,93.93939393939394,61.76470588235294,16,50,73.33333333333333,64.28571428571429,100],"average_offset":[{"x":107.3157894736842,"y":167.28947368421052,"r":187.07771048038055},{"x":-19.903225806451612,"y":159.96774193548387,"r":57.04591319524017},{"x":160,"y":93.11764705882354,"r":140.65679769411756},{"x":8.941176470588236,"y":158.73529411764707,"r":37.02494085208132},{"x":-57.333333333333336,"y":174.58333333333334,"r":200.91344951527515},{"x":82.90322580645162,"y":22.06451612903226,"r":99.69832226802673},{"x":17.484848484848484,"y":36.63636363636363,"r":75.07897280825749},{"x":97.58823529411765,"y":14.323529411764707,"r":125.68924854992093},{"x":255.88,"y":-1.44,"r":73.31608281952876},{"x":109.09375,"y":41.3125,"r":105.89033735918684},{"x":9.966666666666667,"y":83.13333333333334,"r":103.17887722402875},{"x":61.285714285714285,"y":-78.5,"r":122.08315706290028},{"x":-7.548387096774194,"y":72.25806451612904,"r":53.282687104323415}],"samples_per_sec":"15.74","clicks":25,"pattern":"cond","trial_type":"webgazer-validate","trial_index":43,"time_elapsed":609847,"internal_node_id":"0.0-10.0-3.5","validation_points":[[50,50],[85,15],[37.5,62.5],[25,25],[75,25],[25,75],[15,15],[75,75],[15,85],[62.5,37.5],[62.5,62.5],[85,85],[37.5,37.5]],"user_agent":"Mozilla/5.0 (Macintosh; Intel Mac OS X 10.13; rv:88.0) Gecko/20100101 Firefox/88.0","screen_width_px":1280,"screen_height_px":800},{"rt":5507,"stimulus":"\n      <p>Round complete.</p>\n      <p>You can move a little bit, but please try to return you head to the same general location before continuing.</p>\n    ","response":0,"trial_type":"html-button-response","trial_index":44,"time_elapsed":61