[{"rt":638785.6349999784,"stimulus":"\n      <p>You can elect whether to include your data in our research dataset.</p>\n    ","response":0,"question":"consent","trial_type":"html-button-response","trial_index":0,"time_elapsed":638789,"internal_node_id":"0.0-0.0","user_agent":"Mozilla/5.0 (Windows NT 10.0; Win64; x64) AppleWebKit/537.36 (KHTML, like Gecko) Chrome/88.0.4324.190 Safari/537.36","screen_width_px":1536,"screen_height_px":864},{"rt":3095.3199999639764,"stimulus":"\n      <p>This experiment uses your camera for eye tracking.</p>\n      <p>No video is saved from this experiment. The only data recorded are predictions about where you are looking.</p>\n      <p>Before we begin, there are a few things to do that can improve the accuracy of the eye tracking.</p>\n    ","response":0,"trial_type":"html-button-response","trial_index":1,"time_elapsed":641886,"internal_node_id":"0.0-1.0","user_agent":"Mozilla/5.0 (Windows NT 10.0; Win64; x64) AppleWebKit/537.36 (KHTML, like Gecko) Chrome/88.0.4324.190 Safari/537.36","screen_width_px":1536,"screen_height_px":864},{"rt":1511.6699999198318,"stimulus":"\n      <p>If you wear glasses and can complete the task without them, please remove your glasses.</p>\n    ","response":0,"trial_type":"html-button-response","trial_index":2,"time_elapsed":643399,"internal_node_id":"0.0-2.0","user_agent":"Mozilla/5.0 (Windows NT 10.0; Win64; x64) AppleWebKit/537.36 (KHTML, like Gecko) Chrome/88.0.4324.190 Safari/537.36","screen_width_px":1536,"screen_height_px":864},{"rt":2331.815000041388,"stimulus":"\n      <p>Please close additional browser tabs and apps running in the background.<br>The eye tracker works best when there are fewer things running at the same time.</p>\n    ","response":0,"trial_type":"html-button-response","trial_index":3,"time_elapsed":645732,"internal_node_id":"0.0-3.0","user_agent":"Mozilla/5.0 (Windows NT 10.0; Win64; x64) AppleWebKit/537.36 (KHTML, like Gecko) Chrome/88.0.4324.190 Safari/537.36","screen_width_px":1536,"screen_height_px":864},{"rt":1247.1499999519438,"stimulus":"\n      <p>Try to avoid bright lights behind you.<br>The eye tracker works best if your face is well lit from the front.<br>If you can, adjust the lighting in your room.</p>\n    ","response":0,"trial_type":"html-button-response","trial_index":4,"time_elapsed":646980,"internal_node_id":"0.0-4.0","user_agent":"Mozilla/5.0 (Windows NT 10.0; Win64; x64) AppleWebKit/537.36 (KHTML, like Gecko) Chrome/88.0.4324.190 Safari/537.36","screen_width_px":1536,"screen_height_px":864},{"success":true,"trial_type":"fullscreen","trial_index":5,"time_elapsed":649968,"internal_node_id":"0.0-5.0","user_agent":"Mozilla/5.0 (Windows NT 10.0; Win64; x64) AppleWebKit/537.36 (KHTML, like Gecko) Chrome/88.0.4324.190 Safari/537.36","screen_width_px":1536,"screen_height_px":864},{"rt":1827.104999916628,"stimulus":"\n      <p>In order to participate you must allow the experiment to use your camera.</p>\n      <p>You will be prompted to do this on the next screen.</p>\n    ","response":0,"trial_type":"html-button-response","trial_index":6,"time_elapsed":651796,"internal_node_id":"0.0-6.0","user_agent":"Mozilla/5.0 (Windows NT 10.0; Win64; x64) AppleWebKit/537.36 (KHTML, like Gecko) Chrome/88.0.4324.190 Safari/537.36","screen_width_px":1536,"screen_height_px":864},{"trial_type":"webgazer-init-camera","trial_index":7,"time_elapsed":667418,"internal_node_id":"0.0-7.0","user_agent":"Mozilla/5.0 (Windows NT 10.0; Win64; x64) AppleWebKit/537.36 (KHTML, like Gecko) Chrome/88.0.4324.190 Safari/537.36","screen_width_px":1536,"screen_height_px":864},{"rt":2519.1550001036376,"stimulus":"\n      <p>Now you'll complete a series of calibrations and validations.</p>\n      <p>The calibration will be reset after each round, so it is OK to move a little bit<br>in between the end of a validation and the start of the next calibration.</p>\n      <p>Please keep your head still during each round.</p>\n    ","response":0,"trial_type":"html-button-response","trial_index":8,"time_elapsed":669939,"internal_node_id":"0.0-8.0","user_agent":"Mozilla/5.0 (Windows NT 10.0; Win64; x64) AppleWebKit/537.36 (KHTML, like Gecko) Chrome/88.0.4324.190 Safari/537.36","screen_width_px":1536,"screen_height_px":864},{"rt":1455.820000031963,"stimulus":"\n      <p>During the calibration phase, please look at each dot and click on it.</p>\n      <p>During the validation phase, just look at each dot while it is on the screen.</p>\n    ","response":0,"trial_type":"html-button-response","trial_index":9,"time_elapsed":671396,"internal_node_id":"0.0-9.0","user_agent":"Mozilla/5.0 (Windows NT 10.0; Win64; x64) AppleWebKit/537.36 (KHTML, like Gecko) Chrome/88.0.4324.190 Safari/537.36","screen_width_px":1536,"screen_height_px":864},{"rt":957.3049999307841,"stimulus":"\n      <p>Calibration phase next.</p>\n      <p>Click on the dots.</p>\n    ","response":0,"trial_type":"html-button-response","trial_index":10,"time_elapsed":672355,"internal_node_id":"0.0-10.0-0.0","user_agent":"Mozilla/5.0 (Windows NT 10.0; Win64; x64) AppleWebKit/537.36 (KHTML, like Gecko) Chrome/88.0.4324.190 Safari/537.36","screen_width_px":1536,"screen_height_px":864},{"trial_type":"webgazer-calibrate","trial_index":11,"time_elapsed":700709,"internal_node_id":"0.0-10.0-1.0","user_agent":"Mozilla/5.0 (Windows NT 10.0; Win64; x64) AppleWebKit/537.36 (KHTML, like Gecko) Chrome/88.0.4324.190 Safari/537.36","screen_width_px":1536,"screen_height_px":864},{"rt":1564.3449999624863,"stimulus":"\n      <p>Validation phase next.</p>\n      <p>Look at the dots.</p>\n    ","response":0,"trial_type":"html-button-response","trial_index":12,"time_elapsed":702275,"internal_node_id":"0.0-10.0-2.0","user_agent":"Mozilla/5.0 (Windows NT 10.0; Win64; x64) AppleWebKit/537.36 (KHTML, like Gecko) Chrome/88.0.4324.190 Safari/537.36","screen_width_px":1536,"screen_height_px":864},{"raw_gaze":[[{"dx":242,"dy":-21,"t":1059},{"dx":206,"dy":-79,"t":1129},{"dx":209,"dy":-101,"t":1161},{"dx":269,"dy":-91,"t":1207},{"dx":318,"dy":-67,"t":1239},{"dx":271,"dy":-33,"t":1291},{"dx":205,"dy":-33,"t":1323},{"dx":149,"dy":-66,"t":1372},{"dx":132,"dy":-84,"t":1404},{"dx":118,"dy":-75,"t":1449},{"dx":116,"dy":-79,"t":1481},{"dx":171,"dy":-58,"t":1527},{"dx":187,"dy":-48,"t":1559},{"dx":217,"dy":-66,"t":1604},{"dx":224,"dy":-80,"t":1636},{"dx":176,"dy":-68,"t":1681},{"dx":179,"dy":-70,"t":1714},{"dx":191,"dy":-49,"t":1759},{"dx":218,"dy":-47,"t":1791},{"dx":198,"dy":0,"t":1839},{"dx":202,"dy":13,"t":1872},{"dx":149,"dy":19,"t":1916},{"dx":155,"dy":18,"t":1947},{"dx":131,"dy":14,"t":1992},{"dx":111,"dy":15,"t":2022},{"dx":100,"dy":12,"t":2067},{"dx":112,"dy":-7,"t":2097},{"dx":158,"dy":-8,"t":2142},{"dx":179,"dy":-16,"t":2172},{"dx":207,"dy":-56,"t":2219},{"dx":224,"dy":-84,"t":2249},{"dx":207,"dy":-81,"t":2292},{"dx":192,"dy":-75,"t":2327},{"dx":196,"dy":-83,"t":2400},{"dx":212,"dy":-85,"t":2434},{"dx":205,"dy":-105,"t":2481},{"dx":213,"dy":-100,"t":2513},{"dx":216,"dy":-102,"t":2556},{"dx":206,"dy":-90,"t":2586},{"dx":138,"dy":-78,"t":2632},{"dx":94,"dy":-71,"t":2664},{"dx":83,"dy":-62,"t":2713},{"dx":99,"dy":-68,"t":2746},{"dx":89,"dy":-75,"t":2790},{"dx":108,"dy":-61,"t":2821},{"dx":114,"dy":-48,"t":2866},{"dx":133,"dy":-53,"t":2899},{"dx":131,"dy":-21,"t":2946},{"dx":108,"dy":-18,"t":2978},{"dx":140,"dy":-41,"t":3022},{"dx":150,"dy":-55,"t":3057},{"dx":164,"dy":-38,"t":3087}],[{"dx":54,"dy":-3,"t":4080},{"dx":137,"dy":-26,"t":4150},{"dx":167,"dy":-38,"t":4182},{"dx":148,"dy":-40,"t":4228},{"dx":126,"dy":-44,"t":4261},{"dx":108,"dy":-8,"t":4306},{"dx":53,"dy":18,"t":4338},{"dx":9,"dy":31,"t":4382},{"dx":-15,"dy":38,"t":4414},{"dx":28,"dy":21,"t":4459},{"dx":61,"dy":14,"t":4493},{"dx":93,"dy":-1,"t":4569},{"dx":153,"dy":11,"t":4601},{"dx":209,"dy":-24,"t":4649},{"dx":239,"dy":-45,"t":4681},{"dx":206,"dy":-7,"t":4726},{"dx":201,"dy":-2,"t":4756},{"dx":133,"dy":42,"t":4801},{"dx":115,"dy":61,"t":4833},{"dx":85,"dy":117,"t":4879},{"dx":67,"dy":152,"t":4910},{"dx":94,"dy":109,"t":4955},{"dx":125,"dy":88,"t":4988},{"dx":119,"dy":79,"t":5031},{"dx":101,"dy":80,"t":5061},{"dx":124,"dy":136,"t":5106},{"dx":141,"dy":146,"t":5138},{"dx":200,"dy":58,"t":5183},{"dx":226,"dy":30,"t":5214},{"dx":213,"dy":43,"t":5260},{"dx":192,"dy":29,"t":5293},{"dx":169,"dy":34,"t":5337},{"dx":159,"dy":13,"t":5369},{"dx":94,"dy":-10,"t":5414},{"dx":40,"dy":-35,"t":5447},{"dx":6,"dy":6,"t":5491},{"dx":55,"dy":21,"t":5523},{"dx":98,"dy":97,"t":5569},{"dx":90,"dy":134,"t":5601},{"dx":114,"dy":189,"t":5647},{"dx":128,"dy":217,"t":5679},{"dx":105,"dy":145,"t":5729},{"dx":78,"dy":110,"t":5761},{"dx":10,"dy":114,"t":5812},{"dx":24,"dy":119,"t":5844},{"dx":35,"dy":103,"t":5888},{"dx":-5,"dy":120,"t":5953},{"dx":4,"dy":80,"t":6018},{"dx":25,"dy":47,"t":6049},{"dx":37,"dy":57,"t":6097},{"dx":32,"dy":91,"t":6111}],[{"dx":301.59999084472656,"dy":844.3999938964844,"t":7112},{"dx":357.59999084472656,"dy":913.3999938964844,"t":7182},{"dx":337.59999084472656,"dy":809.3999938964844,"t":7214},{"dx":259.59999084472656,"dy":635.3999938964844,"t":7261},{"dx":208.59999084472656,"dy":483.3999938964844,"t":7293},{"dx":115.59999084472656,"dy":231.39999389648438,"t":7337},{"dx":95.59999084472656,"dy":134.39999389648438,"t":7368},{"dx":41.59999084472656,"dy":17.399993896484375,"t":7413},{"dx":25.599990844726562,"dy":-37.600006103515625,"t":7444},{"dx":-13.400009155273438,"dy":-118.60000610351562,"t":7492},{"dx":-33.40000915527344,"dy":-148.60000610351562,"t":7525},{"dx":-39.40000915527344,"dy":-132.60000610351562,"t":7570},{"dx":-39.40000915527344,"dy":-116.60000610351562,"t":7602},{"dx":16.599990844726562,"dy":-75.60000610351562,"t":7647},{"dx":52.59999084472656,"dy":-58.600006103515625,"t":7679},{"dx":72.59999084472656,"dy":-27.600006103515625,"t":7725},{"dx":70.59999084472656,"dy":-31.600006103515625,"t":7758},{"dx":43.59999084472656,"dy":-20.600006103515625,"t":7805},{"dx":49.59999084472656,"dy":-21.600006103515625,"t":7837},{"dx":48.59999084472656,"dy":-20.600006103515625,"t":7882},{"dx":53.59999084472656,"dy":-32.600006103515625,"t":7912},{"dx":51.59999084472656,"dy":-28.600006103515625,"t":7956},{"dx":45.59999084472656,"dy":-14.600006103515625,"t":7991},{"dx":47.59999084472656,"dy":13.399993896484375,"t":8036},{"dx":33.59999084472656,"dy":25.399993896484375,"t":8069},{"dx":23.599990844726562,"dy":45.399993896484375,"t":8113},{"dx":62.59999084472656,"dy":59.399993896484375,"t":8170},{"dx":86.59999084472656,"dy":85.39999389648438,"t":8217},{"dx":85.59999084472656,"dy":89.39999389648438,"t":8246},{"dx":53.59999084472656,"dy":80.39999389648438,"t":8291},{"dx":4.5999908447265625,"dy":76.39999389648438,"t":8321},{"dx":-8.400009155273438,"dy":38.399993896484375,"t":8367},{"dx":-9.400009155273438,"dy":21.399993896484375,"t":8398},{"dx":-23.400009155273438,"dy":17.399993896484375,"t":8444},{"dx":-16.400009155273438,"dy":5.399993896484375,"t":8484},{"dx":37.59999084472656,"dy":50.399993896484375,"t":8569},{"dx":52.59999084472656,"dy":58.399993896484375,"t":8601},{"dx":57.59999084472656,"dy":25.399993896484375,"t":8643},{"dx":47.59999084472656,"dy":38.399993896484375,"t":8672},{"dx":61.59999084472656,"dy":43.399993896484375,"t":8717},{"dx":75.59999084472656,"dy":53.399993896484375,"t":8746},{"dx":98.59999084472656,"dy":53.399993896484375,"t":8790},{"dx":120.59999084472656,"dy":62.399993896484375,"t":8820},{"dx":122.59999084472656,"dy":31.399993896484375,"t":8863},{"dx":130.59999084472656,"dy":30.399993896484375,"t":8894},{"dx":135.59999084472656,"dy":87.39999389648438,"t":8942},{"dx":149.59999084472656,"dy":118.39999389648438,"t":8972},{"dx":130.59999084472656,"dy":97.39999389648438,"t":9015},{"dx":119.59999084472656,"dy":90.39999389648438,"t":9047},{"dx":98.59999084472656,"dy":55.399993896484375,"t":9094},{"dx":106.59999084472656,"dy":44.399993896484375,"t":9126},{"dx":56.59999084472656,"dy":49.399993896484375,"t":9156}],[{"dx":184.59999084472656,"dy":-39.4000244140625,"t":10174},{"dx":183.59999084472656,"dy":-25.4000244140625,"t":10204},{"dx":183.59999084472656,"dy":-42.4000244140625,"t":10250},{"dx":204.59999084472656,"dy":-54.4000244140625,"t":10280},{"dx":195.59999084472656,"dy":-33.4000244140625,"t":10326},{"dx":197.59999084472656,"dy":-25.4000244140625,"t":10356},{"dx":218.59999084472656,"dy":-1.4000244140625,"t":10401},{"dx":229.59999084472656,"dy":3.5999755859375,"t":10432},{"dx":276.59999084472656,"dy":-60.4000244140625,"t":10478},{"dx":273.59999084472656,"dy":-73.4000244140625,"t":10510},{"dx":262.59999084472656,"dy":-117.4000244140625,"t":10556},{"dx":252.59999084472656,"dy":-119.4000244140625,"t":10586},{"dx":237.59999084472656,"dy":-135.4000244140625,"t":10631},{"dx":232.59999084472656,"dy":-147.4000244140625,"t":10663},{"dx":226.59999084472656,"dy":-135.4000244140625,"t":10707},{"dx":207.59999084472656,"dy":-155.4000244140625,"t":10738},{"dx":161.59999084472656,"dy":-104.4000244140625,"t":10782},{"dx":123.59999084472656,"dy":-65.4000244140625,"t":10814},{"dx":167.59999084472656,"dy":-78.4000244140625,"t":10858},{"dx":209.59999084472656,"dy":-109.4000244140625,"t":10892},{"dx":217.59999084472656,"dy":-176.4000244140625,"t":10939},{"dx":223.59999084472656,"dy":-167.4000244140625,"t":10973},{"dx":230.59999084472656,"dy":-88.4000244140625,"t":11021},{"dx":212.59999084472656,"dy":-61.4000244140625,"t":11051},{"dx":188.59999084472656,"dy":-19.4000244140625,"t":11097},{"dx":199.59999084472656,"dy":44.5999755859375,"t":11128},{"dx":161.59999084472656,"dy":76.5999755859375,"t":11171},{"dx":147.59999084472656,"dy":74.5999755859375,"t":11203},{"dx":116.59999084472656,"dy":0.5999755859375,"t":11249},{"dx":110.59999084472656,"dy":-14.4000244140625,"t":11281},{"dx":166.59999084472656,"dy":1.5999755859375,"t":11329},{"dx":198.59999084472656,"dy":10.5999755859375,"t":11362},{"dx":185.59999084472656,"dy":-72.4000244140625,"t":11407},{"dx":162.59999084472656,"dy":-124.4000244140625,"t":11438},{"dx":182.59999084472656,"dy":-151.4000244140625,"t":11486},{"dx":207.59999084472656,"dy":-154.4000244140625,"t":11520},{"dx":225.59999084472656,"dy":-112.4000244140625,"t":11567},{"dx":225.59999084472656,"dy":-83.4000244140625,"t":11599},{"dx":233.59999084472656,"dy":-31.4000244140625,"t":11643},{"dx":243.59999084472656,"dy":-14.4000244140625,"t":11674},{"dx":305.59999084472656,"dy":6.5999755859375,"t":11719},{"dx":336.59999084472656,"dy":38.5999755859375,"t":11752},{"dx":269.59999084472656,"dy":-0.4000244140625,"t":11795},{"dx":247.59999084472656,"dy":-31.4000244140625,"t":11825},{"dx":224.59999084472656,"dy":-47.4000244140625,"t":11869},{"dx":222.59999084472656,"dy":-37.4000244140625,"t":11899},{"dx":239.59999084472656,"dy":-51.4000244140625,"t":11947},{"dx":212.59999084472656,"dy":-72.4000244140625,"t":11979},{"dx":184.59999084472656,"dy":-58.4000244140625,"t":12024},{"dx":156.59999084472656,"dy":-58.4000244140625,"t":12053},{"dx":185.59999084472656,"dy":-1.4000244140625,"t":12098},{"dx":213.59999084472656,"dy":-16.4000244140625,"t":12132},{"dx":165.59999084472656,"dy":-28.4000244140625,"t":12164}],[{"dx":-66,"dy":705,"t":13162},{"dx":6,"dy":571,"t":13208},{"dx":75,"dy":445,"t":13237},{"dx":118,"dy":239,"t":13283},{"dx":131,"dy":154,"t":13315},{"dx":94,"dy":42,"t":13360},{"dx":125,"dy":-2,"t":13392},{"dx":152,"dy":-88,"t":13437},{"dx":172,"dy":-113,"t":13469},{"dx":184,"dy":-98,"t":13517},{"dx":183,"dy":-72,"t":13548},{"dx":148,"dy":-46,"t":13594},{"dx":163,"dy":-62,"t":13625},{"dx":147,"dy":-40,"t":13671},{"dx":141,"dy":-29,"t":13703},{"dx":93,"dy":2,"t":13749},{"dx":107,"dy":17,"t":13782},{"dx":108,"dy":14,"t":13826},{"dx":95,"dy":6,"t":13858},{"dx":63,"dy":32,"t":13903},{"dx":53,"dy":44,"t":13934},{"dx":5,"dy":293,"t":13980},{"dx":-35,"dy":506,"t":14011},{"dx":-37,"dy":555,"t":14056},{"dx":-24,"dy":486,"t":14088},{"dx":-24,"dy":369,"t":14132},{"dx":-20,"dy":307,"t":14166},{"dx":-16,"dy":191,"t":14209},{"dx":-26,"dy":128,"t":14240},{"dx":36,"dy":38,"t":14282},{"dx":27,"dy":25,"t":14317},{"dx":81,"dy":-5,"t":14365},{"dx":101,"dy":7,"t":14398},{"dx":97,"dy":47,"t":14446},{"dx":99,"dy":50,"t":14522},{"dx":116,"dy":75,"t":14573},{"dx":112,"dy":73,"t":14603},{"dx":70,"dy":52,"t":14646},{"dx":52,"dy":41,"t":14676},{"dx":59,"dy":55,"t":14718},{"dx":65,"dy":57,"t":14750},{"dx":102,"dy":76,"t":14795},{"dx":132,"dy":96,"t":14828},{"dx":144,"dy":126,"t":14872},{"dx":132,"dy":143,"t":14904},{"dx":71,"dy":153,"t":14950},{"dx":31,"dy":156,"t":14982},{"dx":26,"dy":119,"t":15027},{"dx":8,"dy":93,"t":15059},{"dx":49,"dy":75,"t":15105},{"dx":65,"dy":66,"t":15139},{"dx":81,"dy":72,"t":15170}],[{"dx":26,"dy":704,"t":16180},{"dx":8,"dy":565,"t":16211},{"dx":-10,"dy":292,"t":16256},{"dx":-24,"dy":179,"t":16285},{"dx":-56,"dy":44,"t":16328},{"dx":-68,"dy":-25,"t":16357},{"dx":-51,"dy":-68,"t":16401},{"dx":-44,"dy":-80,"t":16430},{"dx":-33,"dy":-71,"t":16475},{"dx":-53,"dy":-48,"t":16506},{"dx":-38,"dy":-54,"t":16552},{"dx":-28,"dy":-37,"t":16584},{"dx":-41,"dy":-34,"t":16628},{"dx":-51,"dy":-25,"t":16660},{"dx":-77,"dy":-12,"t":16703},{"dx":-85,"dy":8,"t":16736},{"dx":-50,"dy":34,"t":16779},{"dx":-7,"dy":52,"t":16810},{"dx":-1,"dy":12,"t":16853},{"dx":8,"dy":-2,"t":16885},{"dx":-27,"dy":-80,"t":16931},{"dx":-45,"dy":-120,"t":16963},{"dx":-15,"dy":-97,"t":17010},{"dx":-3,"dy":-84,"t":17040},{"dx":7,"dy":-48,"t":17084},{"dx":7,"dy":-36,"t":17116},{"dx":-29,"dy":7,"t":17161},{"dx":-65,"dy":29,"t":17192},{"dx":-90,"dy":38,"t":17236},{"dx":-78,"dy":33,"t":17268},{"dx":-96,"dy":-3,"t":17312},{"dx":-92,"dy":-9,"t":17344},{"dx":-58,"dy":56,"t":17387},{"dx":-18,"dy":87,"t":17418},{"dx":10,"dy":68,"t":17464},{"dx":-11,"dy":48,"t":17495},{"dx":16,"dy":59,"t":17539},{"dx":44,"dy":77,"t":17572},{"dx":30,"dy":71,"t":17617},{"dx":36,"dy":50,"t":17648},{"dx":24,"dy":2,"t":17692},{"dx":25,"dy":-13,"t":17723},{"dx":48,"dy":-17,"t":17770},{"dx":62,"dy":-15,"t":17801},{"dx":31,"dy":12,"t":17846},{"dx":12,"dy":29,"t":17877},{"dx":-57,"dy":23,"t":17921},{"dx":-86,"dy":9,"t":17953},{"dx":-73,"dy":-51,"t":17997},{"dx":-83,"dy":-73,"t":18028},{"dx":-57,"dy":-61,"t":18072},{"dx":-46,"dy":-48,"t":18106},{"dx":-15,"dy":-23,"t":18152},{"dx":3,"dy":-12,"t":18165}],[{"dx":37,"dy":-43,"t":19178},{"dx":46,"dy":-53,"t":19211},{"dx":67,"dy":-38,"t":19256},{"dx":56,"dy":-32,"t":19288},{"dx":38,"dy":-27,"t":19334},{"dx":25,"dy":-8,"t":19365},{"dx":5,"dy":-19,"t":19409},{"dx":-10,"dy":-11,"t":19440},{"dx":-29,"dy":38,"t":19487},{"dx":-24,"dy":40,"t":19520},{"dx":-5,"dy":9,"t":19568},{"dx":-4,"dy":5,"t":19598},{"dx":62,"dy":29,"t":19644},{"dx":61,"dy":31,"t":19677},{"dx":-2,"dy":2,"t":19722},{"dx":-37,"dy":2,"t":19754},{"dx":-38,"dy":-21,"t":19802},{"dx":-32,"dy":-23,"t":19834},{"dx":43,"dy":18,"t":19880},{"dx":54,"dy":31,"t":19911},{"dx":60,"dy":12,"t":19955},{"dx":81,"dy":12,"t":19988},{"dx":89,"dy":-18,"t":20034},{"dx":63,"dy":-27,"t":20064},{"dx":91,"dy":-11,"t":20108},{"dx":99,"dy":-1,"t":20138},{"dx":93,"dy":10,"t":20183},{"dx":146,"dy":17,"t":20215},{"dx":160,"dy":7,"t":20260},{"dx":123,"dy":24,"t":20292},{"dx":44,"dy":49,"t":20336},{"dx":20,"dy":53,"t":20368},{"dx":9,"dy":86,"t":20415},{"dx":-13,"dy":99,"t":20456},{"dx":-15,"dy":37,"t":20528},{"dx":-10,"dy":-2,"t":20565},{"dx":22,"dy":24,"t":20609},{"dx":35,"dy":44,"t":20641},{"dx":42,"dy":59,"t":20687},{"dx":40,"dy":52,"t":20716},{"dx":-2,"dy":63,"t":20760},{"dx":-41,"dy":62,"t":20789},{"dx":-38,"dy":26,"t":20832},{"dx":-8,"dy":-17,"t":20861},{"dx":30,"dy":-36,"t":20903},{"dx":43,"dy":-15,"t":20932},{"dx":47,"dy":23,"t":20975},{"dx":40,"dy":11,"t":21005},{"dx":20,"dy":-19,"t":21048},{"dx":9,"dy":-24,"t":21078},{"dx":9,"dy":-23,"t":21120},{"dx":31,"dy":-18,"t":21152},{"dx":-7,"dy":-2,"t":21182}],[{"dx":115.4000244140625,"dy":-97.4000244140625,"t":22194},{"dx":101.4000244140625,"dy":-111.4000244140625,"t":22225},{"dx":91.4000244140625,"dy":-114.4000244140625,"t":22270},{"dx":109.4000244140625,"dy":-111.4000244140625,"t":22302},{"dx":156.4000244140625,"dy":-79.4000244140625,"t":22344},{"dx":160.4000244140625,"dy":-52.4000244140625,"t":22374},{"dx":155.4000244140625,"dy":-107.4000244140625,"t":22416},{"dx":149.4000244140625,"dy":-127.4000244140625,"t":22448},{"dx":112.4000244140625,"dy":-96.4000244140625,"t":22497},{"dx":126.4000244140625,"dy":-74.4000244140625,"t":22528},{"dx":121.4000244140625,"dy":-65.4000244140625,"t":22572},{"dx":134.4000244140625,"dy":-56.4000244140625,"t":22603},{"dx":108.4000244140625,"dy":6.5999755859375,"t":22648},{"dx":80.4000244140625,"dy":16.5999755859375,"t":22679},{"dx":41.4000244140625,"dy":-10.4000244140625,"t":22725},{"dx":27.4000244140625,"dy":-35.4000244140625,"t":22756},{"dx":49.4000244140625,"dy":-63.4000244140625,"t":22799},{"dx":70.4000244140625,"dy":-93.4000244140625,"t":22830},{"dx":120.4000244140625,"dy":-107.4000244140625,"t":22874},{"dx":144.4000244140625,"dy":-107.4000244140625,"t":22906},{"dx":143.4000244140625,"dy":-106.4000244140625,"t":22952},{"dx":140.4000244140625,"dy":-114.4000244140625,"t":22984},{"dx":159.4000244140625,"dy":-61.4000244140625,"t":23029},{"dx":176.4000244140625,"dy":-36.4000244140625,"t":23061},{"dx":146.4000244140625,"dy":-10.4000244140625,"t":23106},{"dx":131.4000244140625,"dy":1.5999755859375,"t":23138},{"dx":103.4000244140625,"dy":-31.4000244140625,"t":23184},{"dx":82.4000244140625,"dy":-52.4000244140625,"t":23216},{"dx":73.4000244140625,"dy":-78.4000244140625,"t":23262},{"dx":81.4000244140625,"dy":-85.4000244140625,"t":23295},{"dx":97.4000244140625,"dy":-127.4000244140625,"t":23342},{"dx":102.4000244140625,"dy":-149.4000244140625,"t":23375},{"dx":76.4000244140625,"dy":-135.4000244140625,"t":23420},{"dx":57.4000244140625,"dy":-119.4000244140625,"t":23451},{"dx":40.4000244140625,"dy":-114.4000244140625,"t":23496},{"dx":34.4000244140625,"dy":-102.4000244140625,"t":23528},{"dx":54.4000244140625,"dy":-35.4000244140625,"t":23572},{"dx":75.4000244140625,"dy":11.5999755859375,"t":23604},{"dx":98.4000244140625,"dy":-11.4000244140625,"t":23649},{"dx":110.4000244140625,"dy":-29.4000244140625,"t":23680},{"dx":125.4000244140625,"dy":-23.4000244140625,"t":23727},{"dx":103.4000244140625,"dy":-14.4000244140625,"t":23757},{"dx":-60.5999755859375,"dy":52.5999755859375,"t":23801},{"dx":-124.5999755859375,"dy":98.5999755859375,"t":23834},{"dx":-44.5999755859375,"dy":28.5999755859375,"t":23882},{"dx":-14.5999755859375,"dy":-1.4000244140625,"t":23913},{"dx":76.4000244140625,"dy":-31.4000244140625,"t":23958},{"dx":129.4000244140625,"dy":-37.4000244140625,"t":23988},{"dx":177.4000244140625,"dy":2.5999755859375,"t":24031},{"dx":210.4000244140625,"dy":4.5999755859375,"t":24064},{"dx":177.4000244140625,"dy":-22.4000244140625,"t":24111},{"dx":137.4000244140625,"dy":-53.4000244140625,"t":24144},{"dx":128.4000244140625,"dy":-72.4000244140625,"t":24188},{"dx":126.4000244140625,"dy":-61.4000244140625,"t":24201}],[{"dx":54,"dy":21,"t":25199},{"dx":65,"dy":17,"t":25246},{"dx":73,"dy":18,"t":25276},{"dx":189,"dy":-24,"t":25323},{"dx":237,"dy":-20,"t":25352},{"dx":288,"dy":-58,"t":25393},{"dx":301,"dy":-60,"t":25423},{"dx":253,"dy":-36,"t":25468},{"dx":216,"dy":-6,"t":25499},{"dx":196,"dy":5,"t":25547},{"dx":207,"dy":-7,"t":25577},{"dx":173,"dy":53,"t":25626},{"dx":140,"dy":60,"t":25655},{"dx":153,"dy":69,"t":25699},{"dx":181,"dy":62,"t":25730},{"dx":200,"dy":111,"t":25775},{"dx":223,"dy":135,"t":25807},{"dx":266,"dy":113,"t":25851},{"dx":263,"dy":108,"t":25880},{"dx":213,"dy":86,"t":25925},{"dx":174,"dy":83,"t":25955},{"dx":232,"dy":16,"t":25999},{"dx":219,"dy":-25,"t":26028},{"dx":61,"dy":-21,"t":26074},{"dx":28,"dy":-23,"t":26104},{"dx":49,"dy":17,"t":26148},{"dx":65,"dy":24,"t":26176},{"dx":90,"dy":38,"t":26216},{"dx":89,"dy":56,"t":26246},{"dx":96,"dy":94,"t":26291},{"dx":139,"dy":89,"t":26323},{"dx":162,"dy":105,"t":26367},{"dx":178,"dy":121,"t":26407},{"dx":230,"dy":96,"t":26520},{"dx":247,"dy":79,"t":26551},{"dx":191,"dy":69,"t":26600},{"dx":146,"dy":86,"t":26632},{"dx":108,"dy":86,"t":26675},{"dx":114,"dy":83,"t":26708},{"dx":99,"dy":88,"t":26750},{"dx":62,"dy":114,"t":26780},{"dx":47,"dy":106,"t":26822},{"dx":63,"dy":126,"t":26854},{"dx":53,"dy":68,"t":26906},{"dx":24,"dy":55,"t":26937},{"dx":-12,"dy":53,"t":26979},{"dx":-17,"dy":50,"t":27009},{"dx":71,"dy":28,"t":27053},{"dx":94,"dy":31,"t":27085},{"dx":154,"dy":55,"t":27130},{"dx":196,"dy":89,"t":27161},{"dx":244,"dy":81,"t":27211},{"dx":263,"dy":97,"t":27224}],[{"dx":171.4000244140625,"dy":77.39999389648438,"t":28239},{"dx":180.4000244140625,"dy":79.39999389648438,"t":28270},{"dx":220.4000244140625,"dy":123.39999389648438,"t":28317},{"dx":212.4000244140625,"dy":109.39999389648438,"t":28349},{"dx":186.4000244140625,"dy":102.39999389648438,"t":28393},{"dx":183.4000244140625,"dy":106.39999389648438,"t":28423},{"dx":160.4000244140625,"dy":119.39999389648438,"t":28468},{"dx":151.4000244140625,"dy":134.39999389648438,"t":28500},{"dx":123.4000244140625,"dy":152.39999389648438,"t":28546},{"dx":105.4000244140625,"dy":157.39999389648438,"t":28578},{"dx":128.4000244140625,"dy":187.39999389648438,"t":28623},{"dx":129.4000244140625,"dy":205.39999389648438,"t":28654},{"dx":103.4000244140625,"dy":183.39999389648438,"t":28698},{"dx":95.4000244140625,"dy":147.39999389648438,"t":28729},{"dx":77.4000244140625,"dy":103.39999389648438,"t":28776},{"dx":91.4000244140625,"dy":88.39999389648438,"t":28808},{"dx":121.4000244140625,"dy":93.39999389648438,"t":28853},{"dx":138.4000244140625,"dy":91.39999389648438,"t":28884},{"dx":108.4000244140625,"dy":101.39999389648438,"t":28929},{"dx":108.4000244140625,"dy":112.39999389648438,"t":28963},{"dx":198.4000244140625,"dy":131.39999389648438,"t":29010},{"dx":224.4000244140625,"dy":132.39999389648438,"t":29042},{"dx":254.4000244140625,"dy":128.39999389648438,"t":29087},{"dx":275.4000244140625,"dy":133.39999389648438,"t":29119},{"dx":234.4000244140625,"dy":133.39999389648438,"t":29167},{"dx":193.4000244140625,"dy":138.39999389648438,"t":29199},{"dx":163.4000244140625,"dy":106.39999389648438,"t":29245},{"dx":170.4000244140625,"dy":84.39999389648438,"t":29277},{"dx":149.4000244140625,"dy":58.399993896484375,"t":29322},{"dx":133.4000244140625,"dy":54.399993896484375,"t":29354},{"dx":126.4000244140625,"dy":99.39999389648438,"t":29397},{"dx":125.4000244140625,"dy":109.39999389648438,"t":29428},{"dx":125.4000244140625,"dy":88.39999389648438,"t":29477},{"dx":120.4000244140625,"dy":75.39999389648438,"t":29509},{"dx":103.4000244140625,"dy":95.39999389648438,"t":29554},{"dx":118.4000244140625,"dy":119.39999389648438,"t":29586},{"dx":191.4000244140625,"dy":102.39999389648438,"t":29632},{"dx":209.4000244140625,"dy":121.39999389648438,"t":29664},{"dx":238.4000244140625,"dy":124.39999389648438,"t":29710},{"dx":233.4000244140625,"dy":127.39999389648438,"t":29743},{"dx":194.4000244140625,"dy":84.39999389648438,"t":29791},{"dx":183.4000244140625,"dy":50.399993896484375,"t":29823},{"dx":132.4000244140625,"dy":27.399993896484375,"t":29868},{"dx":95.4000244140625,"dy":29.399993896484375,"t":29901},{"dx":76.4000244140625,"dy":40.399993896484375,"t":29946},{"dx":88.4000244140625,"dy":52.399993896484375,"t":29978},{"dx":123.4000244140625,"dy":87.39999389648438,"t":30023},{"dx":143.4000244140625,"dy":123.39999389648438,"t":30057},{"dx":189.4000244140625,"dy":128.39999389648438,"t":30102},{"dx":209.4000244140625,"dy":109.39999389648438,"t":30133},{"dx":227.4000244140625,"dy":109.39999389648438,"t":30178},{"dx":238.4000244140625,"dy":106.39999389648438,"t":30215},{"dx":229.4000244140625,"dy":94.39999389648438,"t":30246}],[{"dx":76,"dy":136,"t":31225},{"dx":201,"dy":84,"t":31298},{"dx":259,"dy":61,"t":31329},{"dx":245,"dy":31,"t":31375},{"dx":237,"dy":58,"t":31411},{"dx":166,"dy":31,"t":31457},{"dx":138,"dy":23,"t":31490},{"dx":72,"dy":37,"t":31535},{"dx":47,"dy":53,"t":31568},{"dx":133,"dy":62,"t":31613},{"dx":166,"dy":61,"t":31645},{"dx":177,"dy":39,"t":31690},{"dx":163,"dy":29,"t":31722},{"dx":165,"dy":59,"t":31768},{"dx":183,"dy":84,"t":31800},{"dx":230,"dy":120,"t":31848},{"dx":246,"dy":125,"t":31881},{"dx":204,"dy":89,"t":31924},{"dx":158,"dy":73,"t":31956},{"dx":194,"dy":109,"t":32000},{"dx":213,"dy":113,"t":32030},{"dx":198,"dy":52,"t":32077},{"dx":176,"dy":39,"t":32109},{"dx":98,"dy":19,"t":32154},{"dx":44,"dy":26,"t":32185},{"dx":36,"dy":8,"t":32229},{"dx":32,"dy":0,"t":32262},{"dx":143,"dy":39,"t":32309},{"dx":171,"dy":71,"t":32341},{"dx":241,"dy":75,"t":32385},{"dx":268,"dy":65,"t":32419},{"dx":295,"dy":65,"t":32462},{"dx":291,"dy":74,"t":32493},{"dx":237,"dy":71,"t":32540},{"dx":269,"dy":66,"t":32616},{"dx":265,"dy":105,"t":32664},{"dx":281,"dy":126,"t":32697},{"dx":241,"dy":108,"t":32742},{"dx":261,"dy":101,"t":32772},{"dx":211,"dy":83,"t":32818},{"dx":197,"dy":81,"t":32850},{"dx":157,"dy":99,"t":32893},{"dx":131,"dy":98,"t":32924},{"dx":144,"dy":99,"t":32968},{"dx":178,"dy":108,"t":33000},{"dx":178,"dy":67,"t":33045},{"dx":174,"dy":54,"t":33077},{"dx":224,"dy":62,"t":33121},{"dx":200,"dy":36,"t":33152},{"dx":222,"dy":12,"t":33196},{"dx":255,"dy":-11,"t":33233},{"dx":272,"dy":-24,"t":33285}],[{"dx":-78,"dy":-139,"t":34282},{"dx":-82,"dy":-173,"t":34311},{"dx":-57,"dy":-189,"t":34372},{"dx":-26,"dy":-159,"t":34402},{"dx":-30,"dy":-91,"t":34444},{"dx":-40,"dy":-72,"t":34478},{"dx":-9,"dy":32,"t":34522},{"dx":2,"dy":62,"t":34553},{"dx":-9,"dy":5,"t":34596},{"dx":-35,"dy":-9,"t":34628},{"dx":-84,"dy":-36,"t":34672},{"dx":-94,"dy":-68,"t":34702},{"dx":-83,"dy":-162,"t":34749},{"dx":-90,"dy":-177,"t":34781},{"dx":-31,"dy":-89,"t":34825},{"dx":-4,"dy":-39,"t":34856},{"dx":-9,"dy":-35,"t":34901},{"dx":-24,"dy":-46,"t":34933},{"dx":-34,"dy":-36,"t":34982},{"dx":-32,"dy":-28,"t":35013},{"dx":-56,"dy":-65,"t":35060},{"dx":-68,"dy":-82,"t":35092},{"dx":-55,"dy":-37,"t":35135},{"dx":-40,"dy":9,"t":35165},{"dx":-51,"dy":-21,"t":35210},{"dx":-68,"dy":-21,"t":35242},{"dx":-9,"dy":8,"t":35288},{"dx":36,"dy":9,"t":35321},{"dx":62,"dy":-37,"t":35366},{"dx":85,"dy":-41,"t":35396},{"dx":93,"dy":-47,"t":35441},{"dx":82,"dy":-50,"t":35473},{"dx":-48,"dy":-83,"t":35519},{"dx":-90,"dy":-95,"t":35550},{"dx":-139,"dy":-151,"t":35597},{"dx":-166,"dy":-184,"t":35628},{"dx":-168,"dy":-190,"t":35675},{"dx":-150,"dy":-186,"t":35705},{"dx":-144,"dy":-101,"t":35751},{"dx":-117,"dy":-74,"t":35784},{"dx":-96,"dy":-74,"t":35828},{"dx":-86,"dy":-79,"t":35861},{"dx":-32,"dy":-43,"t":35907},{"dx":6,"dy":-31,"t":35938},{"dx":32,"dy":-21,"t":35982},{"dx":48,"dy":-9,"t":36014},{"dx":52,"dy":-27,"t":36058},{"dx":39,"dy":-72,"t":36089},{"dx":-11,"dy":-120,"t":36135},{"dx":-60,"dy":-119,"t":36166},{"dx":-118,"dy":-122,"t":36209},{"dx":-131,"dy":-126,"t":36241},{"dx":-162,"dy":-146,"t":36271}],[{"dx":-148,"dy":-48,"t":37266},{"dx":-142,"dy":-88,"t":37334},{"dx":-159,"dy":-101,"t":37367},{"dx":-144,"dy":-70,"t":37412},{"dx":-114,"dy":-43,"t":37445},{"dx":-137,"dy":-69,"t":37490},{"dx":-176,"dy":-79,"t":37522},{"dx":-177,"dy":-67,"t":37567},{"dx":-152,"dy":-67,"t":37599},{"dx":-158,"dy":-93,"t":37644},{"dx":-148,"dy":-103,"t":37675},{"dx":-155,"dy":-103,"t":37722},{"dx":-171,"dy":-113,"t":37753},{"dx":-238,"dy":-122,"t":37800},{"dx":-269,"dy":-110,"t":37832},{"dx":-298,"dy":-79,"t":37877},{"dx":-283,"dy":-55,"t":37907},{"dx":-257,"dy":-17,"t":37954},{"dx":-229,"dy":43,"t":37985},{"dx":-232,"dy":36,"t":38032},{"dx":-224,"dy":18,"t":38062},{"dx":-220,"dy":20,"t":38106},{"dx":-228,"dy":35,"t":38138},{"dx":-237,"dy":-11,"t":38182},{"dx":-220,"dy":-22,"t":38215},{"dx":-175,"dy":-34,"t":38260},{"dx":-183,"dy":-20,"t":38293},{"dx":-159,"dy":-38,"t":38339},{"dx":-179,"dy":-36,"t":38370},{"dx":-176,"dy":-56,"t":38415},{"dx":-180,"dy":-65,"t":38446},{"dx":-146,"dy":-80,"t":38494},{"dx":-122,"dy":-76,"t":38526},{"dx":-115,"dy":-75,"t":38572},{"dx":-135,"dy":-79,"t":38605},{"dx":-189,"dy":-70,"t":38649},{"dx":-216,"dy":-69,"t":38683},{"dx":-207,"dy":-83,"t":38780},{"dx":-189,"dy":-83,"t":38811},{"dx":-145,"dy":-57,"t":38859},{"dx":-118,"dy":-46,"t":38888},{"dx":-154,"dy":-61,"t":38932},{"dx":-175,"dy":-69,"t":38962},{"dx":-238,"dy":-15,"t":39007},{"dx":-265,"dy":2,"t":39038},{"dx":-262,"dy":-32,"t":39081},{"dx":-259,"dy":-43,"t":39110},{"dx":-232,"dy":-41,"t":39152},{"dx":-221,"dy":-32,"t":39181},{"dx":-154,"dy":-37,"t":39225}]],"percent_in_roi":[30.76923076923077,58.82352941176471,78.84615384615384,5.660377358490567,53.84615384615385,92.5925925925926,98.11320754716981,62.96296296296296,41.509433962264154,18.867924528301888,17.307692307692307,73.58490566037736,8],"average_offset":[{"x":171.57692307692307,"y":-52.01923076923077,"r":86.86580323977502},{"x":102.15686274509804,"y":53.27450980392157,"r":85.56067655949171},{"x":78.17691392164964,"y":90.97691697340746,"r":123.85982260650306},{"x":208.22263235416054,"y":-55.494364036704006,"r":59.499804798779934},{"x":74.4423076923077,"y":120.11538461538461,"r":160.35727429048237},{"x":-25.25925925925926,"y":24.85185185185185,"r":98.69684071944639},{"x":30.660377358490567,"y":9.18867924528302,"r":45.39657538409449},{"x":98.3074318214699,"y":-55.67780219184028,"r":93.55377063871789},{"x":148.11320754716982,"y":52.094339622641506,"r":87.73310200609147},{"x":160.70191120651532,"y":107.23018257572966,"r":52.556772267166046},{"x":187.75,"y":64.4423076923077,"r":82.1325803435506},{"x":-44.886792452830186,"y":-73.15094339622641,"r":82.29616176570468},{"x":-190.2,"y":-52.06,"r":84.85158679111709}],"samples_per_sec":"25.58","clicks":15,"pattern":"spread","trial_type":"webgazer-validate","trial_index":13,"time_elapsed":742520,"internal_node_id":"0.0-10.0-3.0","validation_points":[[75,75],[37.5,62.5],[15,15],[15,85],[75,25],[25,25],[50,50],[85,85],[62.5,62.5],[85,15],[62.5,37.5],[25,75],[37.5,37.5]],"user_agent":"Mozilla/5.0 (Windows NT 10.0; Win64; x64) AppleWebKit/537.36 (KHTML, like Gecko) Chrome/88.0.4324.190 Safari/537.36","screen_width_px":1536,"screen_height_px":864},{"rt":1400.6000000517815,"stimulus":"\n      <p>Round complete.</p>\n      <p>You can move a little bit, but please try to return you head to the same general location before continuing.</p>\n    ","response":0,"trial_type":"html-button-response","trial_index":14,"time_elapsed":743923,"internal_node_id":"0.0-10.0-4.0","user_agent":"Mozilla/5.0 (Windows NT 10.0; Win64; x64) AppleWebKit/537.36 (KHTML, like Gecko) Chrome/88.0.4324.190 Safari/537.36","screen_width_px":1536,"screen_height_px":864},{"trial_type":"webgazer-init-camera","trial_index":15,"time_elapsed":750357,"internal_node_id":"0.0-10.0-5.0","user_agent":"Mozilla/5.0 (Windows NT 10.0; Win64; x64) AppleWebKit/537.36 (KHTML, like Gecko) Chrome/88.0.4324.190 Safari/537.36","screen_width_px":1536,"screen_height_px":864},{"rt":1547.744999988936,"stimulus":"\n      <p>Calibration phase next.</p>\n      <p>Click on the dots.</p>\n    ","response":0,"trial_type":"html-button-response","trial_index":16,"time_elapsed":751907,"internal_node_id":"0.0-10.0-0.1","user_agent":"Mozilla/5.0 (Windows NT 10.0; Win64; x64) AppleWebKit/537.36 (KHTML, like Gecko) Chrome/88.0.4324.190 Safari/537.36","screen_width_px":1536,"screen_height_px":864},{"trial_type":"webgazer-calibrate","trial_index":17,"time_elapsed":798217,"internal_node_id":"0.0-10.0-1.1","user_agent":"Mozilla/5.0 (Windows NT 10.0; Win64; x64) AppleWebKit/537.36 (KHTML, like Gecko) Chrome/88.0.4324.190 Safari/537.36","screen_width_px":1536,"screen_height_px":864},{"rt":1336.4849999779835,"stimulus":"\n      <p>Validation phase next.</p>\n      <p>Look at the dots.</p>\n    ","response":0,"trial_type":"html-button-response","trial_index":18,"time_elapsed":799556,"internal_node_id":"0.0-10.0-2.1","user_agent":"Mozilla/5.0 (Windows NT 10.0; Win64; x64) AppleWebKit/537.36 (KHTML, like Gecko) Chrome/88.0.4324.190 Safari/537.36","screen_width_px":1536,"screen_height_px":864},{"raw_gaze":[[{"dx":-173.5999755859375,"dy":-79.4000244140625,"t":1054},{"dx":-187.5999755859375,"dy":-92.4000244140625,"t":1126},{"dx":-182.5999755859375,"dy":-108.4000244140625,"t":1158},{"dx":-151.5999755859375,"dy":-51.4000244140625,"t":1204},{"dx":-118.5999755859375,"dy":-4.4000244140625,"t":1235},{"dx":-113.5999755859375,"dy":32.5999755859375,"t":1281},{"dx":-106.5999755859375,"dy":50.5999755859375,"t":1311},{"dx":-89.5999755859375,"dy":49.5999755859375,"t":1352},{"dx":-91.5999755859375,"dy":32.5999755859375,"t":1384},{"dx":-70.5999755859375,"dy":-10.4000244140625,"t":1427},{"dx":-114.5999755859375,"dy":-47.4000244140625,"t":1459},{"dx":-192.5999755859375,"dy":-87.4000244140625,"t":1505},{"dx":-224.5999755859375,"dy":-94.4000244140625,"t":1536},{"dx":-299.5999755859375,"dy":-132.4000244140625,"t":1581},{"dx":-338.5999755859375,"dy":-126.4000244140625,"t":1610},{"dx":-290.5999755859375,"dy":-147.4000244140625,"t":1657},{"dx":-260.5999755859375,"dy":-147.4000244140625,"t":1689},{"dx":-174.5999755859375,"dy":-98.4000244140625,"t":1734},{"dx":-159.5999755859375,"dy":-87.4000244140625,"t":1765},{"dx":-117.5999755859375,"dy":-70.4000244140625,"t":1807},{"dx":-87.5999755859375,"dy":-55.4000244140625,"t":1839},{"dx":-18.5999755859375,"dy":-32.4000244140625,"t":1884},{"dx":-43.5999755859375,"dy":-43.4000244140625,"t":1913},{"dx":73.4000244140625,"dy":-13.4000244140625,"t":1958},{"dx":173.4000244140625,"dy":12.5999755859375,"t":1989},{"dx":92.4000244140625,"dy":27.5999755859375,"t":2034},{"dx":25.4000244140625,"dy":25.5999755859375,"t":2066},{"dx":62.4000244140625,"dy":7.5999755859375,"t":2109},{"dx":39.4000244140625,"dy":-1.4000244140625,"t":2140},{"dx":-12.5999755859375,"dy":-10.4000244140625,"t":2187},{"dx":-28.5999755859375,"dy":-11.4000244140625,"t":2218},{"dx":-62.5999755859375,"dy":-21.4000244140625,"t":2262},{"dx":-64.5999755859375,"dy":-30.4000244140625,"t":2292},{"dx":-38.5999755859375,"dy":-54.4000244140625,"t":2337},{"dx":-47.5999755859375,"dy":-78.4000244140625,"t":2368},{"dx":-66.5999755859375,"dy":-123.4000244140625,"t":2413},{"dx":-88.5999755859375,"dy":-138.4000244140625,"t":2442},{"dx":-105.5999755859375,"dy":-157.4000244140625,"t":2487},{"dx":-109.5999755859375,"dy":-167.4000244140625,"t":2518},{"dx":-78.5999755859375,"dy":-118.4000244140625,"t":2562},{"dx":-78.5999755859375,"dy":-83.4000244140625,"t":2595},{"dx":-93.5999755859375,"dy":-30.4000244140625,"t":2641},{"dx":-76.5999755859375,"dy":-12.4000244140625,"t":2673},{"dx":-24.5999755859375,"dy":17.5999755859375,"t":2718},{"dx":6.4000244140625,"dy":30.5999755859375,"t":2748},{"dx":30.4000244140625,"dy":56.5999755859375,"t":2793},{"dx":42.4000244140625,"dy":68.5999755859375,"t":2824},{"dx":11.4000244140625,"dy":23.5999755859375,"t":2871},{"dx":10.4000244140625,"dy":6.5999755859375,"t":2903},{"dx":-53.5999755859375,"dy":-23.4000244140625,"t":2948},{"dx":-109.5999755859375,"dy":-45.4000244140625,"t":2980},{"dx":-53.5999755859375,"dy":-40.4000244140625,"t":3023},{"dx":-36.5999755859375,"dy":-36.4000244140625,"t":3056},{"dx":-1.5999755859375,"dy":-21.4000244140625,"t":3087}],[{"dx":270.59999084472656,"dy":34.5999755859375,"t":4082},{"dx":166.59999084472656,"dy":34.5999755859375,"t":4150},{"dx":110.59999084472656,"dy":45.5999755859375,"t":4183},{"dx":62.59999084472656,"dy":2.5999755859375,"t":4230},{"dx":49.59999084472656,"dy":2.5999755859375,"t":4261},{"dx":6.5999908447265625,"dy":-11.4000244140625,"t":4310},{"dx":19.599990844726562,"dy":3.5999755859375,"t":4342},{"dx":24.599990844726562,"dy":-14.4000244140625,"t":4389},{"dx":58.59999084472656,"dy":-14.4000244140625,"t":4421},{"dx":127.59999084472656,"dy":41.5999755859375,"t":4467},{"dx":177.59999084472656,"dy":58.5999755859375,"t":4498},{"dx":188.59999084472656,"dy":-0.4000244140625,"t":4541},{"dx":168.59999084472656,"dy":-22.4000244140625,"t":4574},{"dx":285.59999084472656,"dy":-28.4000244140625,"t":4619},{"dx":289.59999084472656,"dy":-39.4000244140625,"t":4650},{"dx":282.59999084472656,"dy":-34.4000244140625,"t":4695},{"dx":287.59999084472656,"dy":-23.4000244140625,"t":4726},{"dx":260.59999084472656,"dy":-7.4000244140625,"t":4786},{"dx":268.59999084472656,"dy":-4.4000244140625,"t":4848},{"dx":246.59999084472656,"dy":2.5999755859375,"t":4897},{"dx":246.59999084472656,"dy":28.5999755859375,"t":4929},{"dx":294.59999084472656,"dy":22.5999755859375,"t":4975},{"dx":304.59999084472656,"dy":21.5999755859375,"t":5006},{"dx":311.59999084472656,"dy":51.5999755859375,"t":5050},{"dx":307.59999084472656,"dy":60.5999755859375,"t":5082},{"dx":290.59999084472656,"dy":23.5999755859375,"t":5127},{"dx":307.59999084472656,"dy":7.5999755859375,"t":5160},{"dx":238.59999084472656,"dy":-56.4000244140625,"t":5206},{"dx":173.59999084472656,"dy":-95.4000244140625,"t":5237},{"dx":98.59999084472656,"dy":-104.4000244140625,"t":5284},{"dx":56.59999084472656,"dy":-103.4000244140625,"t":5316},{"dx":109.59999084472656,"dy":-98.4000244140625,"t":5361},{"dx":179.59999084472656,"dy":-74.4000244140625,"t":5393},{"dx":277.59999084472656,"dy":-56.4000244140625,"t":5437},{"dx":352.59999084472656,"dy":-21.4000244140625,"t":5468},{"dx":200.59999084472656,"dy":27.5999755859375,"t":5511},{"dx":129.59999084472656,"dy":47.5999755859375,"t":5544},{"dx":115.59999084472656,"dy":8.5999755859375,"t":5587},{"dx":116.59999084472656,"dy":12.5999755859375,"t":5617},{"dx":190.59999084472656,"dy":44.5999755859375,"t":5663},{"dx":230.59999084472656,"dy":76.5999755859375,"t":5695},{"dx":214.59999084472656,"dy":100.5999755859375,"t":5739},{"dx":178.59999084472656,"dy":101.5999755859375,"t":5771},{"dx":131.59999084472656,"dy":68.5999755859375,"t":5814},{"dx":93.59999084472656,"dy":38.5999755859375,"t":5847},{"dx":91.59999084472656,"dy":17.5999755859375,"t":5892},{"dx":119.59999084472656,"dy":22.5999755859375,"t":5924},{"dx":196.59999084472656,"dy":3.5999755859375,"t":5969},{"dx":146.59999084472656,"dy":-18.4000244140625,"t":6000},{"dx":97.59999084472656,"dy":-20.4000244140625,"t":6046},{"dx":77.59999084472656,"dy":-38.4000244140625,"t":6077},{"dx":133.59999084472656,"dy":-21.4000244140625,"t":6105}],[{"dx":146,"dy":-10,"t":7123},{"dx":134,"dy":-36,"t":7169},{"dx":130,"dy":-30,"t":7200},{"dx":114,"dy":-28,"t":7246},{"dx":105,"dy":-31,"t":7279},{"dx":59,"dy":29,"t":7326},{"dx":52,"dy":26,"t":7357},{"dx":3,"dy":16,"t":7404},{"dx":10,"dy":25,"t":7436},{"dx":91,"dy":73,"t":7480},{"dx":140,"dy":82,"t":7512},{"dx":32,"dy":40,"t":7558},{"dx":59,"dy":60,"t":7589},{"dx":85,"dy":80,"t":7631},{"dx":88,"dy":82,"t":7664},{"dx":80,"dy":52,"t":7709},{"dx":59,"dy":18,"t":7741},{"dx":12,"dy":-14,"t":7786},{"dx":0,"dy":-20,"t":7819},{"dx":61,"dy":35,"t":7864},{"dx":96,"dy":68,"t":7896},{"dx":116,"dy":138,"t":7940},{"dx":96,"dy":148,"t":7971},{"dx":123,"dy":163,"t":8016},{"dx":139,"dy":172,"t":8048},{"dx":236,"dy":205,"t":8092},{"dx":257,"dy":164,"t":8125},{"dx":223,"dy":170,"t":8171},{"dx":208,"dy":186,"t":8203},{"dx":208,"dy":124,"t":8249},{"dx":249,"dy":135,"t":8282},{"dx":201,"dy":136,"t":8326},{"dx":143,"dy":110,"t":8356},{"dx":125,"dy":97,"t":8400},{"dx":125,"dy":106,"t":8433},{"dx":142,"dy":129,"t":8479},{"dx":178,"dy":150,"t":8513},{"dx":212,"dy":141,"t":8560},{"dx":225,"dy":122,"t":8593},{"dx":275,"dy":90,"t":8637},{"dx":298,"dy":113,"t":8668},{"dx":289,"dy":138,"t":8713},{"dx":287,"dy":160,"t":8745},{"dx":285,"dy":143,"t":8789},{"dx":265,"dy":130,"t":8821},{"dx":179,"dy":114,"t":8865},{"dx":157,"dy":104,"t":8898},{"dx":109,"dy":97,"t":8946},{"dx":75,"dy":92,"t":8979},{"dx":42,"dy":105,"t":9023},{"dx":21,"dy":117,"t":9057},{"dx":3,"dy":129,"t":9103},{"dx":-27,"dy":131,"t":9118}],[{"dx":-26,"dy":-10,"t":10108},{"dx":-13,"dy":-59,"t":10180},{"dx":-56,"dy":-77,"t":10211},{"dx":-67,"dy":-95,"t":10256},{"dx":-65,"dy":-85,"t":10288},{"dx":-32,"dy":-33,"t":10333},{"dx":-39,"dy":-22,"t":10366},{"dx":5,"dy":-20,"t":10410},{"dx":24,"dy":-17,"t":10441},{"dx":38,"dy":-13,"t":10486},{"dx":78,"dy":26,"t":10518},{"dx":125,"dy":50,"t":10563},{"dx":144,"dy":58,"t":10594},{"dx":92,"dy":41,"t":10641},{"dx":34,"dy":22,"t":10670},{"dx":66,"dy":36,"t":10718},{"dx":30,"dy":54,"t":10749},{"dx":16,"dy":34,"t":10795},{"dx":-13,"dy":53,"t":10828},{"dx":46,"dy":27,"t":10873},{"dx":74,"dy":-7,"t":10905},{"dx":39,"dy":-30,"t":10950},{"dx":7,"dy":-26,"t":10985},{"dx":4,"dy":-117,"t":11030},{"dx":4,"dy":-125,"t":11067},{"dx":63,"dy":-83,"t":11165},{"dx":122,"dy":-37,"t":11198},{"dx":169,"dy":5,"t":11248},{"dx":150,"dy":-5,"t":11278},{"dx":177,"dy":7,"t":11322},{"dx":194,"dy":-12,"t":11354},{"dx":102,"dy":51,"t":11398},{"dx":41,"dy":72,"t":11430},{"dx":12,"dy":87,"t":11474},{"dx":5,"dy":83,"t":11507},{"dx":-3,"dy":9,"t":11551},{"dx":53,"dy":24,"t":11583},{"dx":81,"dy":53,"t":11630},{"dx":77,"dy":63,"t":11662},{"dx":40,"dy":47,"t":11706},{"dx":43,"dy":58,"t":11739},{"dx":129,"dy":39,"t":11783},{"dx":137,"dy":25,"t":11817},{"dx":83,"dy":-5,"t":11862},{"dx":89,"dy":-17,"t":11894},{"dx":-15,"dy":-48,"t":11939},{"dx":-53,"dy":-43,"t":11970},{"dx":-79,"dy":-24,"t":12015},{"dx":-52,"dy":-10,"t":12047},{"dx":-54,"dy":17,"t":12093},{"dx":-8,"dy":55,"t":12127},{"dx":-106,"dy":85,"t":12156}],[{"dx":384,"dy":261,"t":13169},{"dx":429,"dy":221,"t":13200},{"dx":479,"dy":176,"t":13245},{"dx":486,"dy":152,"t":13276},{"dx":538,"dy":236,"t":13321},{"dx":587,"dy":259,"t":13352},{"dx":564,"dy":264,"t":13397},{"dx":567,"dy":278,"t":13428},{"dx":560,"dy":270,"t":13472},{"dx":557,"dy":253,"t":13503},{"dx":403,"dy":283,"t":13547},{"dx":339,"dy":302,"t":13579},{"dx":447,"dy":318,"t":13623},{"dx":527,"dy":322,"t":13655},{"dx":645,"dy":348,"t":13698},{"dx":693,"dy":365,"t":13730},{"dx":635,"dy":372,"t":13775},{"dx":599,"dy":361,"t":13808},{"dx":498,"dy":364,"t":13852},{"dx":537,"dy":385,"t":13884},{"dx":522,"dy":374,"t":13931},{"dx":547,"dy":355,"t":13962},{"dx":488,"dy":368,"t":14006},{"dx":407,"dy":352,"t":14038},{"dx":327,"dy":327,"t":14082},{"dx":262,"dy":319,"t":14115},{"dx":304,"dy":279,"t":14160},{"dx":331,"dy":256,"t":14191},{"dx":350,"dy":251,"t":14236},{"dx":411,"dy":254,"t":14264},{"dx":316,"dy":217,"t":14308},{"dx":317,"dy":193,"t":14344},{"dx":375,"dy":263,"t":14389},{"dx":358,"dy":294,"t":14421},{"dx":377,"dy":380,"t":14465},{"dx":429,"dy":370,"t":14495},{"dx":515,"dy":364,"t":14541},{"dx":448,"dy":340,"t":14573},{"dx":484,"dy":326,"t":14620},{"dx":418,"dy":329,"t":14653},{"dx":363,"dy":324,"t":14700},{"dx":348,"dy":305,"t":14731},{"dx":249,"dy":297,"t":14778},{"dx":240,"dy":294,"t":14809},{"dx":316,"dy":320,"t":14856},{"dx":340,"dy":321,"t":14887},{"dx":303,"dy":304,"t":14930},{"dx":266,"dy":274,"t":14963},{"dx":263,"dy":219,"t":15007},{"dx":258,"dy":242,"t":15037},{"dx":356,"dy":244,"t":15083},{"dx":320,"dy":221,"t":15116},{"dx":446,"dy":267,"t":15163},{"dx":400,"dy":272,"t":15177}],[{"dx":476,"dy":195,"t":16196},{"dx":487,"dy":188,"t":16227},{"dx":449,"dy":136,"t":16271},{"dx":402,"dy":83,"t":16303},{"dx":295,"dy":42,"t":16349},{"dx":278,"dy":49,"t":16382},{"dx":125,"dy":73,"t":16428},{"dx":12,"dy":86,"t":16458},{"dx":-400,"dy":243,"t":16505},{"dx":-732,"dy":346,"t":16537},{"dx":-876,"dy":456,"t":16580},{"dx":-778,"dy":471,"t":16611},{"dx":-530,"dy":410,"t":16655},{"dx":-390,"dy":352,"t":16688},{"dx":-200,"dy":245,"t":16732},{"dx":-157,"dy":203,"t":16765},{"dx":3,"dy":148,"t":16808},{"dx":96,"dy":118,"t":16839},{"dx":277,"dy":145,"t":16884},{"dx":312,"dy":162,"t":16916},{"dx":328,"dy":159,"t":16962},{"dx":251,"dy":159,"t":16994},{"dx":238,"dy":181,"t":17040},{"dx":273,"dy":175,"t":17074},{"dx":282,"dy":207,"t":17118},{"dx":289,"dy":215,"t":17151},{"dx":223,"dy":198,"t":17197},{"dx":191,"dy":206,"t":17229},{"dx":157,"dy":184,"t":17275},{"dx":175,"dy":180,"t":17307},{"dx":151,"dy":171,"t":17352},{"dx":136,"dy":172,"t":17391},{"dx":72,"dy":154,"t":17488},{"dx":68,"dy":166,"t":17521},{"dx":130,"dy":161,"t":17572},{"dx":172,"dy":139,"t":17604},{"dx":161,"dy":173,"t":17648},{"dx":84,"dy":157,"t":17679},{"dx":110,"dy":109,"t":17724},{"dx":143,"dy":104,"t":17758},{"dx":297,"dy":160,"t":17803},{"dx":371,"dy":189,"t":17834},{"dx":469,"dy":201,"t":17880},{"dx":532,"dy":230,"t":17910},{"dx":442,"dy":224,"t":17958},{"dx":374,"dy":190,"t":17990},{"dx":345,"dy":168,"t":18036},{"dx":324,"dy":188,"t":18067},{"dx":338,"dy":100,"t":18110},{"dx":325,"dy":58,"t":18143},{"dx":224,"dy":9,"t":18191},{"dx":192,"dy":20,"t":18205}],[{"dx":247.59999084472656,"dy":148.39999389648438,"t":19227},{"dx":320.59999084472656,"dy":196.39999389648438,"t":19261},{"dx":371.59999084472656,"dy":205.39999389648438,"t":19307},{"dx":370.59999084472656,"dy":196.39999389648438,"t":19338},{"dx":306.59999084472656,"dy":196.39999389648438,"t":19385},{"dx":250.59999084472656,"dy":207.39999389648438,"t":19415},{"dx":121.59999084472656,"dy":142.39999389648438,"t":19460},{"dx":130.59999084472656,"dy":134.39999389648438,"t":19492},{"dx":193.59999084472656,"dy":120.39999389648438,"t":19537},{"dx":257.59999084472656,"dy":123.39999389648438,"t":19569},{"dx":294.59999084472656,"dy":165.39999389648438,"t":19613},{"dx":267.59999084472656,"dy":149.39999389648438,"t":19644},{"dx":263.59999084472656,"dy":123.39999389648438,"t":19688},{"dx":263.59999084472656,"dy":119.39999389648438,"t":19720},{"dx":276.59999084472656,"dy":130.39999389648438,"t":19765},{"dx":278.59999084472656,"dy":128.39999389648438,"t":19796},{"dx":201.59999084472656,"dy":131.39999389648438,"t":19842},{"dx":170.59999084472656,"dy":134.39999389648438,"t":19874},{"dx":200.59999084472656,"dy":135.39999389648438,"t":19918},{"dx":192.59999084472656,"dy":116.39999389648438,"t":19950},{"dx":221.59999084472656,"dy":127.39999389648438,"t":19997},{"dx":223.59999084472656,"dy":125.39999389648438,"t":20028},{"dx":185.59999084472656,"dy":109.39999389648438,"t":20074},{"dx":255.59999084472656,"dy":147.39999389648438,"t":20106},{"dx":290.59999084472656,"dy":177.39999389648438,"t":20150},{"dx":311.59999084472656,"dy":179.39999389648438,"t":20182},{"dx":253.59999084472656,"dy":148.39999389648438,"t":20226},{"dx":196.59999084472656,"dy":120.39999389648438,"t":20258},{"dx":96.59999084472656,"dy":103.39999389648438,"t":20305},{"dx":43.59999084472656,"dy":100.39999389648438,"t":20338},{"dx":63.59999084472656,"dy":134.39999389648438,"t":20382},{"dx":113.59999084472656,"dy":157.39999389648438,"t":20413},{"dx":194.59999084472656,"dy":136.39999389648438,"t":20458},{"dx":197.59999084472656,"dy":121.39999389648438,"t":20489},{"dx":187.59999084472656,"dy":71.39999389648438,"t":20536},{"dx":175.59999084472656,"dy":57.399993896484375,"t":20568},{"dx":222.59999084472656,"dy":44.399993896484375,"t":20611},{"dx":284.59999084472656,"dy":74.39999389648438,"t":20641},{"dx":335.59999084472656,"dy":124.39999389648438,"t":20686},{"dx":346.59999084472656,"dy":148.39999389648438,"t":20717},{"dx":358.59999084472656,"dy":158.39999389648438,"t":20764},{"dx":319.59999084472656,"dy":143.39999389648438,"t":20795},{"dx":415.59999084472656,"dy":184.39999389648438,"t":20839},{"dx":489.59999084472656,"dy":215.39999389648438,"t":20870},{"dx":507.59999084472656,"dy":232.39999389648438,"t":20914},{"dx":466.59999084472656,"dy":225.39999389648438,"t":20946},{"dx":416.59999084472656,"dy":246.39999389648438,"t":20990},{"dx":378.59999084472656,"dy":223.39999389648438,"t":21022},{"dx":360.59999084472656,"dy":160.39999389648438,"t":21067},{"dx":347.59999084472656,"dy":129.39999389648438,"t":21099},{"dx":400.59999084472656,"dy":153.39999389648438,"t":21143},{"dx":408.59999084472656,"dy":160.39999389648438,"t":21175},{"dx":215.59999084472656,"dy":172.39999389648438,"t":21223},{"dx":93.59999084472656,"dy":181.39999389648438,"t":21237}],[{"dx":16,"dy":111,"t":22254},{"dx":12,"dy":126,"t":22287},{"dx":-189,"dy":264,"t":22333},{"dx":-327,"dy":392,"t":22363},{"dx":-276,"dy":494,"t":22409},{"dx":-269,"dy":523,"t":22442},{"dx":-24,"dy":486,"t":22488},{"dx":146,"dy":439,"t":22518},{"dx":112,"dy":322,"t":22564},{"dx":115,"dy":279,"t":22597},{"dx":71,"dy":215,"t":22640},{"dx":69,"dy":174,"t":22671},{"dx":96,"dy":175,"t":22714},{"dx":117,"dy":184,"t":22744},{"dx":-27,"dy":142,"t":22787},{"dx":-172,"dy":98,"t":22819},{"dx":-157,"dy":67,"t":22865},{"dx":-106,"dy":93,"t":22897},{"dx":-141,"dy":122,"t":22941},{"dx":-191,"dy":101,"t":22972},{"dx":-50,"dy":153,"t":23017},{"dx":21,"dy":173,"t":23049},{"dx":56,"dy":97,"t":23096},{"dx":60,"dy":57,"t":23127},{"dx":27,"dy":49,"t":23171},{"dx":11,"dy":22,"t":23203},{"dx":62,"dy":105,"t":23249},{"dx":84,"dy":137,"t":23281},{"dx":147,"dy":140,"t":23328},{"dx":164,"dy":108,"t":23359},{"dx":120,"dy":71,"t":23405},{"dx":111,"dy":90,"t":23438},{"dx":-139,"dy":218,"t":23485},{"dx":-310,"dy":315,"t":23514},{"dx":-303,"dy":495,"t":23561},{"dx":-290,"dy":531,"t":23593},{"dx":-172,"dy":492,"t":23641},{"dx":-56,"dy":438,"t":23720},{"dx":-58,"dy":359,"t":23766},{"dx":-17,"dy":301,"t":23799},{"dx":54,"dy":226,"t":23845},{"dx":32,"dy":203,"t":23876},{"dx":56,"dy":130,"t":23921},{"dx":20,"dy":97,"t":23953},{"dx":71,"dy":88,"t":23998},{"dx":97,"dy":98,"t":24029},{"dx":118,"dy":121,"t":24078},{"dx":120,"dy":131,"t":24108},{"dx":35,"dy":89,"t":24151},{"dx":19,"dy":81,"t":24184},{"dx":-84,"dy":65,"t":24230},{"dx":-134,"dy":53,"t":24244}],[{"dx":126,"dy":107,"t":25262},{"dx":183,"dy":97,"t":25295},{"dx":196,"dy":148,"t":25338},{"dx":131,"dy":178,"t":25368},{"dx":131,"dy":155,"t":25411},{"dx":146,"dy":160,"t":25444},{"dx":79,"dy":149,"t":25490},{"dx":24,"dy":141,"t":25520},{"dx":-42,"dy":149,"t":25565},{"dx":5,"dy":157,"t":25599},{"dx":3,"dy":166,"t":25643},{"dx":-23,"dy":159,"t":25675},{"dx":-53,"dy":175,"t":25721},{"dx":-68,"dy":172,"t":25754},{"dx":-40,"dy":164,"t":25800},{"dx":-43,"dy":144,"t":25832},{"dx":-28,"dy":141,"t":25874},{"dx":-16,"dy":140,"t":25905},{"dx":29,"dy":133,"t":25950},{"dx":36,"dy":126,"t":25983},{"dx":41,"dy":154,"t":26028},{"dx":125,"dy":185,"t":26060},{"dx":64,"dy":179,"t":26103},{"dx":71,"dy":183,"t":26133},{"dx":-10,"dy":157,"t":26177},{"dx":-77,"dy":130,"t":26210},{"dx":-99,"dy":139,"t":26253},{"dx":-119,"dy":127,"t":26283},{"dx":-118,"dy":128,"t":26327},{"dx":-100,"dy":130,"t":26357},{"dx":-142,"dy":107,"t":26402},{"dx":-157,"dy":70,"t":26434},{"dx":-54,"dy":123,"t":26479},{"dx":-17,"dy":154,"t":26510},{"dx":45,"dy":165,"t":26555},{"dx":19,"dy":159,"t":26586},{"dx":77,"dy":174,"t":26631},{"dx":79,"dy":165,"t":26661},{"dx":0,"dy":121,"t":26707},{"dx":-54,"dy":126,"t":26739},{"dx":-60,"dy":121,"t":26782},{"dx":-49,"dy":117,"t":26815},{"dx":-27,"dy":117,"t":26861},{"dx":-12,"dy":89,"t":26891},{"dx":60,"dy":154,"t":26935},{"dx":122,"dy":185,"t":26968},{"dx":92,"dy":160,"t":27010},{"dx":69,"dy":149,"t":27042},{"dx":19,"dy":171,"t":27090},{"dx":28,"dy":193,"t":27122},{"dx":-30,"dy":158,"t":27165},{"dx":-71,"dy":140,"t":27197},{"dx":-17,"dy":136,"t":27243},{"dx":6,"dy":119,"t":27257}],[{"dx":-67,"dy":98,"t":28285},{"dx":-56,"dy":80,"t":28317},{"dx":-50,"dy":50,"t":28365},{"dx":-38,"dy":21,"t":28397},{"dx":-39,"dy":28,"t":28442},{"dx":-37,"dy":30,"t":28474},{"dx":-25,"dy":63,"t":28521},{"dx":-18,"dy":82,"t":28553},{"dx":3,"dy":149,"t":28597},{"dx":-12,"dy":186,"t":28629},{"dx":-14,"dy":160,"t":28675},{"dx":-4,"dy":134,"t":28708},{"dx":9,"dy":109,"t":28756},{"dx":-24,"dy":91,"t":28787},{"dx":-10,"dy":103,"t":28834},{"dx":19,"dy":123,"t":28864},{"dx":19,"dy":98,"t":28908},{"dx":14,"dy":89,"t":28942},{"dx":-13,"dy":119,"t":28988},{"dx":-36,"dy":96,"t":29021},{"dx":-44,"dy":133,"t":29067},{"dx":-60,"dy":137,"t":29099},{"dx":-44,"dy":104,"t":29144},{"dx":-34,"dy":102,"t":29175},{"dx":-41,"dy":96,"t":29222},{"dx":-42,"dy":100,"t":29253},{"dx":-102,"dy":91,"t":29297},{"dx":-130,"dy":86,"t":29328},{"dx":-153,"dy":39,"t":29374},{"dx":-181,"dy":15,"t":29406},{"dx":-145,"dy":54,"t":29451},{"dx":-125,"dy":63,"t":29484},{"dx":-161,"dy":79,"t":29531},{"dx":-217,"dy":61,"t":29561},{"dx":-23,"dy":31,"t":29604},{"dx":91,"dy":34,"t":29636},{"dx":83,"dy":47,"t":29680},{"dx":78,"dy":59,"t":29713},{"dx":93,"dy":62,"t":29758},{"dx":92,"dy":35,"t":29790},{"dx":-33,"dy":65,"t":29837},{"dx":-112,"dy":62,"t":29870},{"dx":-140,"dy":58,"t":29922},{"dx":-192,"dy":24,"t":30003},{"dx":-223,"dy":42,"t":30050},{"dx":-233,"dy":26,"t":30083},{"dx":-242,"dy":-3,"t":30125},{"dx":-254,"dy":-17,"t":30156},{"dx":-215,"dy":5,"t":30202},{"dx":-174,"dy":26,"t":30235},{"dx":-167,"dy":33,"t":30265}],[{"dx":3,"dy":135,"t":31253},{"dx":-42,"dy":152,"t":31320},{"dx":-13,"dy":167,"t":31353},{"dx":99,"dy":207,"t":31400},{"dx":199,"dy":225,"t":31430},{"dx":228,"dy":252,"t":31476},{"dx":214,"dy":254,"t":31507},{"dx":216,"dy":259,"t":31552},{"dx":182,"dy":252,"t":31585},{"dx":262,"dy":265,"t":31630},{"dx":270,"dy":262,"t":31660},{"dx":310,"dy":234,"t":31705},{"dx":300,"dy":194,"t":31737},{"dx":344,"dy":194,"t":31781},{"dx":375,"dy":220,"t":31812},{"dx":339,"dy":242,"t":31859},{"dx":287,"dy":236,"t":31891},{"dx":246,"dy":230,"t":31937},{"dx":215,"dy":228,"t":31968},{"dx":137,"dy":193,"t":32014},{"dx":80,"dy":159,"t":32047},{"dx":36,"dy":154,"t":32091},{"dx":65,"dy":174,"t":32120},{"dx":67,"dy":195,"t":32165},{"dx":67,"dy":190,"t":32194},{"dx":140,"dy":211,"t":32238},{"dx":244,"dy":265,"t":32270},{"dx":179,"dy":190,"t":32316},{"dx":176,"dy":167,"t":32349},{"dx":114,"dy":179,"t":32393},{"dx":70,"dy":178,"t":32424},{"dx":3,"dy":159,"t":32470},{"dx":-49,"dy":152,"t":32501},{"dx":-75,"dy":185,"t":32545},{"dx":-36,"dy":201,"t":32577},{"dx":-4,"dy":189,"t":32622},{"dx":-6,"dy":167,"t":32655},{"dx":-37,"dy":120,"t":32701},{"dx":-16,"dy":123,"t":32733},{"dx":33,"dy":179,"t":32782},{"dx":77,"dy":206,"t":32812},{"dx":109,"dy":219,"t":32857},{"dx":108,"dy":231,"t":32888},{"dx":110,"dy":196,"t":32934},{"dx":97,"dy":165,"t":32964},{"dx":112,"dy":141,"t":33009},{"dx":94,"dy":128,"t":33041},{"dx":210,"dy":169,"t":33085},{"dx":268,"dy":192,"t":33118},{"dx":271,"dy":197,"t":33161},{"dx":204,"dy":185,"t":33192},{"dx":154,"dy":214,"t":33237},{"dx":113,"dy":220,"t":33269},{"dx":145,"dy":238,"t":33298}],[{"dx":390.4000244140625,"dy":237.39999389648438,"t":34315},{"dx":442.4000244140625,"dy":196.39999389648438,"t":34349},{"dx":481.4000244140625,"dy":227.39999389648438,"t":34394},{"dx":466.4000244140625,"dy":231.39999389648438,"t":34427},{"dx":335.4000244140625,"dy":212.39999389648438,"t":34472},{"dx":307.4000244140625,"dy":241.39999389648438,"t":34504},{"dx":305.4000244140625,"dy":247.39999389648438,"t":34549},{"dx":300.4000244140625,"dy":271.3999938964844,"t":34582},{"dx":242.4000244140625,"dy":222.39999389648438,"t":34627},{"dx":172.4000244140625,"dy":198.39999389648438,"t":34660},{"dx":168.4000244140625,"dy":218.39999389648438,"t":34710},{"dx":217.4000244140625,"dy":253.39999389648438,"t":34742},{"dx":255.4000244140625,"dy":323.3999938964844,"t":34787},{"dx":320.4000244140625,"dy":360.3999938964844,"t":34822},{"dx":390.4000244140625,"dy":303.3999938964844,"t":34869},{"dx":410.4000244140625,"dy":281.3999938964844,"t":34902},{"dx":467.4000244140625,"dy":281.3999938964844,"t":34946},{"dx":486.4000244140625,"dy":286.3999938964844,"t":34979},{"dx":413.4000244140625,"dy":291.3999938964844,"t":35023},{"dx":345.4000244140625,"dy":316.3999938964844,"t":35056},{"dx":362.4000244140625,"dy":347.3999938964844,"t":35101},{"dx":389.4000244140625,"dy":345.3999938964844,"t":35133},{"dx":393.4000244140625,"dy":324.3999938964844,"t":35177},{"dx":337.4000244140625,"dy":316.3999938964844,"t":35210},{"dx":317.4000244140625,"dy":280.3999938964844,"t":35255},{"dx":331.4000244140625,"dy":281.3999938964844,"t":35288},{"dx":299.4000244140625,"dy":297.3999938964844,"t":35333},{"dx":323.4000244140625,"dy":327.3999938964844,"t":35366},{"dx":361.4000244140625,"dy":327.3999938964844,"t":35413},{"dx":297.4000244140625,"dy":271.3999938964844,"t":35447},{"dx":379.4000244140625,"dy":276.3999938964844,"t":35492},{"dx":421.4000244140625,"dy":291.3999938964844,"t":35523},{"dx":388.4000244140625,"dy":260.3999938964844,"t":35566},{"dx":331.4000244140625,"dy":221.39999389648438,"t":35597},{"dx":213.4000244140625,"dy":235.39999389648438,"t":35642},{"dx":178.4000244140625,"dy":255.39999389648438,"t":35674},{"dx":164.4000244140625,"dy":259.3999938964844,"t":35719},{"dx":185.4000244140625,"dy":275.3999938964844,"t":35751},{"dx":79.4000244140625,"dy":183.39999389648438,"t":35794},{"dx":43.4000244140625,"dy":126.39999389648438,"t":35827},{"dx":185.4000244140625,"dy":146.39999389648438,"t":35872},{"dx":269.4000244140625,"dy":167.39999389648438,"t":35906},{"dx":341.4000244140625,"dy":215.39999389648438,"t":35950},{"dx":356.4000244140625,"dy":237.39999389648438,"t":35984},{"dx":319.4000244140625,"dy":259.3999938964844,"t":36030},{"dx":226.4000244140625,"dy":232.39999389648438,"t":36062},{"dx":248.4000244140625,"dy":221.39999389648438,"t":36109},{"dx":322.4000244140625,"dy":235.39999389648438,"t":36144},{"dx":436.4000244140625,"dy":280.3999938964844,"t":36188},{"dx":402.4000244140625,"dy":266.3999938964844,"t":36220},{"dx":402.4000244140625,"dy":250.39999389648438,"t":36271},{"dx":410.4000244140625,"dy":252.39999389648438,"t":36361},{"dx":369.4000244140625,"dy":279.3999938964844,"t":36392}],[{"dx":-45,"dy":146,"t":37345},{"dx":-91,"dy":107,"t":37379},{"dx":-68,"dy":68,"t":37424},{"dx":-56,"dy":70,"t":37457},{"dx":5,"dy":58,"t":37502},{"dx":40,"dy":56,"t":37535},{"dx":108,"dy":133,"t":37582},{"dx":112,"dy":152,"t":37614},{"dx":106,"dy":153,"t":37660},{"dx":106,"dy":149,"t":37690},{"dx":40,"dy":127,"t":37737},{"dx":4,"dy":105,"t":37769},{"dx":16,"dy":68,"t":37813},{"dx":27,"dy":51,"t":37846},{"dx":83,"dy":136,"t":37892},{"dx":112,"dy":173,"t":37925},{"dx":131,"dy":197,"t":37971},{"dx":124,"dy":270,"t":38003},{"dx":178,"dy":248,"t":38048},{"dx":195,"dy":245,"t":38081},{"dx":197,"dy":272,"t":38127},{"dx":172,"dy":267,"t":38160},{"dx":176,"dy":266,"t":38207},{"dx":139,"dy":245,"t":38241},{"dx":99,"dy":144,"t":38285},{"dx":65,"dy":86,"t":38316},{"dx":50,"dy":29,"t":38363},{"dx":96,"dy":36,"t":38395},{"dx":175,"dy":137,"t":38442},{"dx":192,"dy":177,"t":38473},{"dx":164,"dy":210,"t":38517},{"dx":162,"dy":227,"t":38547},{"dx":156,"dy":235,"t":38591},{"dx":178,"dy":239,"t":38622},{"dx":182,"dy":166,"t":38666},{"dx":193,"dy":146,"t":38697},{"dx":130,"dy":121,"t":38739},{"dx":77,"dy":111,"t":38771},{"dx":56,"dy":99,"t":38816},{"dx":77,"dy":96,"t":38850},{"dx":-165,"dy":154,"t":38895},{"dx":-382,"dy":216,"t":38927},{"dx":-578,"dy":314,"t":38973},{"dx":-597,"dy":351,"t":39004},{"dx":-521,"dy":330,"t":39050},{"dx":-371,"dy":306,"t":39081},{"dx":-74,"dy":249,"t":39125},{"dx":19,"dy":240,"t":39157},{"dx":230,"dy":242,"t":39202},{"dx":304,"dy":220,"t":39234},{"dx":292,"dy":179,"t":39282}]],"percent_in_roi":[70.37037037037037,42.30769230769231,49.056603773584904,90.38461538461539,0,5.769230769230769,5.555555555555555,36.53846153846153,25.925925925925924,66.66666666666666,5.555555555555555,1.8867924528301887,29.411764705882355],"average_offset":[{"x":-79.13701262297454,"y":-42.474098488136576,"r":128.6840960179668},{"x":180.15768315241888,"y":2.0038217397836537,"r":142.0446211730271},{"x":132.45283018867926,"y":90.11320754716981,"r":97.88639421806948},{"x":36.76923076923077,"y":3.0961538461538463,"r":111.57179255555427},{"x":424.5925925925926,"y":294.537037037037,"r":168.54365415875068},{"x":134.92307692307693,"y":178.03846153846155,"r":256.9304367058198},{"x":265.9518426965784,"y":148.15925315574364,"r":117.46036548544004},{"x":-24.096153846153847,"y":202.69230769230768,"r":239.98105634495843},{"x":8.88888888888889,"y":145.2962962962963,"r":96.73454763008894},{"x":-67.23529411764706,"y":71.72549019607843,"r":79.75927835468505},{"x":135.07407407407408,"y":197.0185185185185,"r":148.31314422878086},{"x":320.89059045179835,"y":259.437729745541,"r":89.78568089693381},{"x":39.6078431372549,"y":172.98039215686273,"r":133.7832504203764}],"samples_per_sec":"25.73","clicks":25,"pattern":"cond","trial_type":"webgazer-validate","trial_index":19,"time_elapsed":839858,"internal_node_id":"0.0-10.0-3.1","validation_points":[[85,85],[15,85],[75,75],[25,75],[62.5,37.5],[75,25],[15,15],[37.5,37.5],[50,50],[37.5,62.5],[25,25],[85,15],[62.5,62.5]],"user_agent":"Mozilla/5.0 (Windows NT 10.0; Win64; x64) AppleWebKit/537.36 (KHTML, like Gecko) Chrome/88.0.4324.190 Safari/537.36","screen_width_px":1536,"screen_height_px":864},{"rt":3582.18999998644,"stimulus":"\n      <p>Round complete.</p>\n      <p>You can move a little bit, but please try to return you head to the same general location before continuing.</p>\n    ","response":0,"trial_type":"html-button-response","trial_index":20,"time_elapsed":843443,"internal_node_id":"0.0-10.0-4.1","user_agent":"Mozilla/5.0 (Windows NT 10.0; Win64; x64) AppleWebKit/537.36 (KHTML, like Gecko) Chrome/88.0.4324.190 Safari/537.36","screen_width_px":1536,"screen_height_px":864},{"trial_type":"webgazer-init-camera","trial_index":21,"time_elapsed":851328,"internal_node_id":"0.0-10.0-5.1","user_agent":"Mozilla/5.0 (Windows NT 10.0; Win64; x64) AppleWebKit/537.36 (KHTML, like Gecko) Chrome/88.0.4324.190 Safari/537.36","screen_width_px":1536,"screen_height_px":864},{"rt":1648.354999953881,"stimulus":"\n      <p>Calibration phase next.</p>\n      <p>Click on the dots.</p>\n    ","response":0,"trial_type":"html-button-response","trial_index":22,"time_elapsed":852978,"internal_node_id":"0.0-10.0-0.2","user_agent":"Mozilla/5.0 (Windows NT 10.0; Win64; x64) AppleWebKit/537.36 (KHTML, like Gecko) Chrome/88.0.4324.190 Safari/537.36","screen_width_px":1536,"screen_height_px":864},{"trial_type":"webgazer-calibrate","trial_index":23,"time_elapsed":879055,"internal_node_id":"0.0-10.0-1.2","user_agent":"Mozilla/5.0 (Windows NT 10.0; Win64; x64) AppleWebKit/537.36 (KHTML, like Gecko) Chrome/88.0.4324.190 Safari/537.36","screen_width_px":1536,"screen_height_px":864},{"rt":2450.2949999878183,"stimulus":"\n      <p>Validation phase next.</p>\n      <p>Look at the dots.</p>\n    ","response":0,"trial_type":"html-button-response","trial_index":24,"time_elapsed":881507,"internal_node_id":"0.0-10.0-2.2","user_agent":"Mozilla/5.0 (Windows NT 10.0; Win64; x64) AppleWebKit/537.36 (KHTML, like Gecko) Chrome/88.0.4324.190 Safari/537.36","screen_width_px":1536,"screen_height_px":864},{"raw_gaze":[[{"dx":34,"dy":20,"t":1075},{"dx":27,"dy":43,"t":1122},{"dx":19,"dy":53,"t":1154},{"dx":42,"dy":67,"t":1199},{"dx":42,"dy":67,"t":1230},{"dx":57,"dy":29,"t":1276},{"dx":75,"dy":36,"t":1307},{"dx":29,"dy":-2,"t":1352},{"dx":-7,"dy":-9,"t":1383},{"dx":7,"dy":21,"t":1428},{"dx":3,"dy":81,"t":1462},{"dx":-24,"dy":209,"t":1508},{"dx":-47,"dy":311,"t":1539},{"dx":-50,"dy":370,"t":1583},{"dx":-34,"dy":413,"t":1614},{"dx":-51,"dy":386,"t":1661},{"dx":-43,"dy":355,"t":1692},{"dx":-45,"dy":227,"t":1735},{"dx":-46,"dy":122,"t":1767},{"dx":-23,"dy":-14,"t":1811},{"dx":-44,"dy":-83,"t":1842},{"dx":-22,"dy":-71,"t":1887},{"dx":-20,"dy":-54,"t":1918},{"dx":28,"dy":-63,"t":1963},{"dx":40,"dy":-47,"t":1993},{"dx":84,"dy":6,"t":2037},{"dx":86,"dy":32,"t":2069},{"dx":89,"dy":54,"t":2115},{"dx":89,"dy":59,"t":2147},{"dx":101,"dy":82,"t":2192},{"dx":99,"dy":81,"t":2223},{"dx":72,"dy":34,"t":2266},{"dx":51,"dy":13,"t":2325},{"dx":25,"dy":3,"t":2372},{"dx":17,"dy":27,"t":2404},{"dx":-13,"dy":42,"t":2451},{"dx":-27,"dy":52,"t":2484},{"dx":-69,"dy":33,"t":2528},{"dx":-88,"dy":26,"t":2561},{"dx":-86,"dy":0,"t":2610},{"dx":-70,"dy":-16,"t":2642},{"dx":-53,"dy":1,"t":2689},{"dx":-31,"dy":19,"t":2720},{"dx":-19,"dy":23,"t":2763},{"dx":-20,"dy":7,"t":2793},{"dx":1,"dy":-17,"t":2837},{"dx":26,"dy":-11,"t":2889},{"dx":11,"dy":-44,"t":2936},{"dx":0,"dy":-56,"t":2967},{"dx":4,"dy":-46,"t":3013},{"dx":14,"dy":-44,"t":3044},{"dx":-17,"dy":-21,"t":3074}],[{"dx":158.59999084472656,"dy":28.5999755859375,"t":4064},{"dx":138.59999084472656,"dy":-40.4000244140625,"t":4148},{"dx":142.59999084472656,"dy":-70.4000244140625,"t":4180},{"dx":152.59999084472656,"dy":-98.4000244140625,"t":4225},{"dx":160.59999084472656,"dy":-101.4000244140625,"t":4256},{"dx":152.59999084472656,"dy":-109.4000244140625,"t":4302},{"dx":153.59999084472656,"dy":-105.4000244140625,"t":4333},{"dx":169.59999084472656,"dy":-95.4000244140625,"t":4378},{"dx":178.59999084472656,"dy":-87.4000244140625,"t":4415},{"dx":196.59999084472656,"dy":-64.4000244140625,"t":4505},{"dx":184.59999084472656,"dy":-60.4000244140625,"t":4535},{"dx":160.59999084472656,"dy":-41.4000244140625,"t":4580},{"dx":149.59999084472656,"dy":-52.4000244140625,"t":4611},{"dx":187.59999084472656,"dy":-70.4000244140625,"t":4654},{"dx":220.59999084472656,"dy":-64.4000244140625,"t":4682},{"dx":217.59999084472656,"dy":-80.4000244140625,"t":4726},{"dx":202.59999084472656,"dy":-84.4000244140625,"t":4757},{"dx":170.59999084472656,"dy":-85.4000244140625,"t":4802},{"dx":154.59999084472656,"dy":-123.4000244140625,"t":4830},{"dx":128.59999084472656,"dy":-124.4000244140625,"t":4874},{"dx":106.59999084472656,"dy":-131.4000244140625,"t":4904},{"dx":114.59999084472656,"dy":-129.4000244140625,"t":4948},{"dx":118.59999084472656,"dy":-121.4000244140625,"t":4978},{"dx":138.59999084472656,"dy":-103.4000244140625,"t":5025},{"dx":138.59999084472656,"dy":-96.4000244140625,"t":5057},{"dx":171.59999084472656,"dy":-54.4000244140625,"t":5101},{"dx":177.59999084472656,"dy":-34.4000244140625,"t":5132},{"dx":167.59999084472656,"dy":-31.4000244140625,"t":5176},{"dx":163.59999084472656,"dy":-24.4000244140625,"t":5207},{"dx":201.59999084472656,"dy":-21.4000244140625,"t":5253},{"dx":211.59999084472656,"dy":-34.4000244140625,"t":5283},{"dx":235.59999084472656,"dy":-7.4000244140625,"t":5328},{"dx":251.59999084472656,"dy":-6.4000244140625,"t":5358},{"dx":200.59999084472656,"dy":-45.4000244140625,"t":5402},{"dx":168.59999084472656,"dy":-49.4000244140625,"t":5432},{"dx":174.59999084472656,"dy":50.5999755859375,"t":5476},{"dx":185.59999084472656,"dy":144.5999755859375,"t":5506},{"dx":236.59999084472656,"dy":245.5999755859375,"t":5549},{"dx":281.59999084472656,"dy":271.5999755859375,"t":5579},{"dx":275.59999084472656,"dy":294.5999755859375,"t":5624},{"dx":266.59999084472656,"dy":287.5999755859375,"t":5657},{"dx":279.59999084472656,"dy":232.5999755859375,"t":5702},{"dx":298.59999084472656,"dy":191.5999755859375,"t":5732},{"dx":264.59999084472656,"dy":109.5999755859375,"t":5778},{"dx":247.59999084472656,"dy":66.5999755859375,"t":5810},{"dx":230.59999084472656,"dy":-20.4000244140625,"t":5854},{"dx":223.59999084472656,"dy":-52.4000244140625,"t":5885},{"dx":206.59999084472656,"dy":-92.4000244140625,"t":5930},{"dx":203.59999084472656,"dy":-109.4000244140625,"t":5960},{"dx":212.59999084472656,"dy":-115.4000244140625,"t":6005},{"dx":226.59999084472656,"dy":-103.4000244140625,"t":6035},{"dx":246.59999084472656,"dy":-52.4000244140625,"t":6081},{"dx":261.59999084472656,"dy":-20.4000244140625,"t":6094}],[{"dx":39,"dy":-49,"t":7115},{"dx":51,"dy":-47,"t":7146},{"dx":35,"dy":-78,"t":7189},{"dx":8,"dy":-69,"t":7219},{"dx":-30,"dy":-152,"t":7260},{"dx":-54,"dy":-176,"t":7291},{"dx":-83,"dy":-86,"t":7341},{"dx":-124,"dy":-45,"t":7373},{"dx":-76,"dy":-53,"t":7420},{"dx":-58,"dy":-57,"t":7451},{"dx":-83,"dy":-21,"t":7495},{"dx":-86,"dy":-7,"t":7526},{"dx":-86,"dy":12,"t":7572},{"dx":-101,"dy":12,"t":7605},{"dx":-81,"dy":-66,"t":7647},{"dx":-80,"dy":-103,"t":7679},{"dx":-60,"dy":-48,"t":7723},{"dx":-64,"dy":-8,"t":7754},{"dx":-117,"dy":-35,"t":7800},{"dx":-129,"dy":-38,"t":7832},{"dx":-145,"dy":-17,"t":7877},{"dx":-141,"dy":-40,"t":7908},{"dx":-75,"dy":-16,"t":7953},{"dx":-51,"dy":-14,"t":7984},{"dx":-35,"dy":16,"t":8030},{"dx":-40,"dy":40,"t":8062},{"dx":-108,"dy":-1,"t":8108},{"dx":-135,"dy":7,"t":8140},{"dx":-143,"dy":-38,"t":8184},{"dx":-123,"dy":-65,"t":8215},{"dx":-178,"dy":-49,"t":8261},{"dx":-203,"dy":-37,"t":8292},{"dx":-213,"dy":-45,"t":8336},{"dx":-205,"dy":-57,"t":8367},{"dx":-195,"dy":-41,"t":8413},{"dx":-183,"dy":-22,"t":8446},{"dx":-158,"dy":14,"t":8493},{"dx":-147,"dy":23,"t":8523},{"dx":-90,"dy":17,"t":8566},{"dx":-52,"dy":6,"t":8596},{"dx":-60,"dy":-52,"t":8640},{"dx":-87,"dy":-57,"t":8671},{"dx":-108,"dy":-4,"t":8719},{"dx":-107,"dy":8,"t":8751},{"dx":-163,"dy":33,"t":8795},{"dx":-178,"dy":55,"t":8827},{"dx":-244,"dy":72,"t":8873},{"dx":-257,"dy":77,"t":8905},{"dx":-248,"dy":77,"t":8951},{"dx":-214,"dy":75,"t":8983},{"dx":-186,"dy":69,"t":9027},{"dx":-189,"dy":77,"t":9059},{"dx":-177,"dy":90,"t":9106},{"dx":-184,"dy":106,"t":9120}],[{"dx":-2,"dy":97,"t":10116},{"dx":-18,"dy":87,"t":10188},{"dx":-7,"dy":93,"t":10219},{"dx":14,"dy":126,"t":10264},{"dx":25,"dy":143,"t":10297},{"dx":11,"dy":150,"t":10343},{"dx":8,"dy":151,"t":10372},{"dx":12,"dy":156,"t":10417},{"dx":16,"dy":182,"t":10448},{"dx":-8,"dy":155,"t":10494},{"dx":-9,"dy":146,"t":10525},{"dx":38,"dy":185,"t":10572},{"dx":40,"dy":199,"t":10603},{"dx":64,"dy":198,"t":10648},{"dx":61,"dy":198,"t":10692},{"dx":62,"dy":216,"t":10762},{"dx":65,"dy":232,"t":10792},{"dx":64,"dy":208,"t":10834},{"dx":66,"dy":185,"t":10862},{"dx":34,"dy":135,"t":10904},{"dx":0,"dy":107,"t":10934},{"dx":-12,"dy":105,"t":10975},{"dx":-18,"dy":119,"t":11007},{"dx":-22,"dy":161,"t":11052},{"dx":-20,"dy":175,"t":11083},{"dx":-31,"dy":132,"t":11127},{"dx":-35,"dy":109,"t":11160},{"dx":-21,"dy":122,"t":11204},{"dx":-1,"dy":129,"t":11236},{"dx":-12,"dy":119,"t":11282},{"dx":-20,"dy":110,"t":11312},{"dx":-13,"dy":117,"t":11358},{"dx":-8,"dy":118,"t":11389},{"dx":38,"dy":204,"t":11436},{"dx":55,"dy":231,"t":11468},{"dx":30,"dy":188,"t":11515},{"dx":3,"dy":163,"t":11546},{"dx":-20,"dy":167,"t":11590},{"dx":-14,"dy":190,"t":11622},{"dx":11,"dy":230,"t":11665},{"dx":28,"dy":247,"t":11696},{"dx":41,"dy":262,"t":11741},{"dx":28,"dy":248,"t":11773},{"dx":5,"dy":205,"t":11818},{"dx":1,"dy":181,"t":11849},{"dx":4,"dy":130,"t":11896},{"dx":3,"dy":111,"t":11928},{"dx":6,"dy":112,"t":11973},{"dx":16,"dy":121,"t":12004},{"dx":-5,"dy":126,"t":12046},{"dx":-7,"dy":135,"t":12076},{"dx":28,"dy":199,"t":12120},{"dx":30,"dy":217,"t":12134}],[{"dx":-332.5999755859375,"dy":23.5999755859375,"t":13136},{"dx":-217.5999755859375,"dy":-31.4000244140625,"t":13207},{"dx":-196.5999755859375,"dy":-56.4000244140625,"t":13238},{"dx":-187.5999755859375,"dy":-109.4000244140625,"t":13283},{"dx":-164.5999755859375,"dy":-126.4000244140625,"t":13314},{"dx":-184.5999755859375,"dy":-116.4000244140625,"t":13360},{"dx":-193.5999755859375,"dy":-113.4000244140625,"t":13393},{"dx":-251.5999755859375,"dy":-117.4000244140625,"t":13437},{"dx":-279.5999755859375,"dy":-101.4000244140625,"t":13468},{"dx":-262.5999755859375,"dy":-87.4000244140625,"t":13512},{"dx":-230.5999755859375,"dy":-77.4000244140625,"t":13544},{"dx":-210.5999755859375,"dy":-44.4000244140625,"t":13589},{"dx":-229.5999755859375,"dy":-37.4000244140625,"t":13620},{"dx":-213.5999755859375,"dy":-56.4000244140625,"t":13665},{"dx":-226.5999755859375,"dy":-48.4000244140625,"t":13697},{"dx":-272.5999755859375,"dy":-37.4000244140625,"t":13741},{"dx":-301.5999755859375,"dy":-25.4000244140625,"t":13772},{"dx":-317.5999755859375,"dy":6.5999755859375,"t":13818},{"dx":-311.5999755859375,"dy":4.5999755859375,"t":13849},{"dx":-298.5999755859375,"dy":-33.4000244140625,"t":13893},{"dx":-301.5999755859375,"dy":-27.4000244140625,"t":13926},{"dx":-286.5999755859375,"dy":-70.4000244140625,"t":13972},{"dx":-261.5999755859375,"dy":-82.4000244140625,"t":14002},{"dx":-256.5999755859375,"dy":-147.4000244140625,"t":14047},{"dx":-257.5999755859375,"dy":-185.4000244140625,"t":14078},{"dx":-253.5999755859375,"dy":-154.4000244140625,"t":14123},{"dx":-255.5999755859375,"dy":-153.4000244140625,"t":14155},{"dx":-287.5999755859375,"dy":-166.4000244140625,"t":14199},{"dx":-297.5999755859375,"dy":-168.4000244140625,"t":14229},{"dx":-300.5999755859375,"dy":-120.4000244140625,"t":14274},{"dx":-298.5999755859375,"dy":-93.4000244140625,"t":14305},{"dx":-334.5999755859375,"dy":-11.4000244140625,"t":14350},{"dx":-367.5999755859375,"dy":25.5999755859375,"t":14383},{"dx":-391.5999755859375,"dy":19.5999755859375,"t":14424},{"dx":-389.5999755859375,"dy":-0.4000244140625,"t":14456},{"dx":-352.5999755859375,"dy":-31.4000244140625,"t":14503},{"dx":-306.5999755859375,"dy":-100.4000244140625,"t":14534},{"dx":-289.5999755859375,"dy":-67.4000244140625,"t":14576},{"dx":-278.5999755859375,"dy":-53.4000244140625,"t":14608},{"dx":-283.5999755859375,"dy":-20.4000244140625,"t":14650},{"dx":-287.5999755859375,"dy":-5.4000244140625,"t":14682},{"dx":-285.5999755859375,"dy":-78.4000244140625,"t":14728},{"dx":-309.5999755859375,"dy":-89.4000244140625,"t":14759},{"dx":-328.5999755859375,"dy":-64.4000244140625,"t":14803},{"dx":-339.5999755859375,"dy":-52.4000244140625,"t":14834},{"dx":-279.5999755859375,"dy":-51.4000244140625,"t":14877},{"dx":-239.5999755859375,"dy":-51.4000244140625,"t":14909},{"dx":-269.5999755859375,"dy":-37.4000244140625,"t":14954},{"dx":-273.5999755859375,"dy":-35.4000244140625,"t":14984},{"dx":-298.5999755859375,"dy":-47.4000244140625,"t":15028},{"dx":-313.5999755859375,"dy":-47.4000244140625,"t":15058},{"dx":-334.5999755859375,"dy":-93.4000244140625,"t":15108},{"dx":-333.5999755859375,"dy":-108.4000244140625,"t":15142},{"dx":-342.5999755859375,"dy":-16.4000244140625,"t":15173}],[{"dx":119.4000244140625,"dy":183.39999389648438,"t":16188},{"dx":147.4000244140625,"dy":195.39999389648438,"t":16221},{"dx":92.4000244140625,"dy":148.39999389648438,"t":16266},{"dx":84.4000244140625,"dy":156.39999389648438,"t":16296},{"dx":124.4000244140625,"dy":188.39999389648438,"t":16343},{"dx":161.4000244140625,"dy":225.39999389648438,"t":16374},{"dx":118.4000244140625,"dy":217.39999389648438,"t":16420},{"dx":102.4000244140625,"dy":213.39999389648438,"t":16453},{"dx":132.4000244140625,"dy":249.39999389648438,"t":16497},{"dx":174.4000244140625,"dy":270.3999938964844,"t":16528},{"dx":116.4000244140625,"dy":209.39999389648438,"t":16575},{"dx":92.4000244140625,"dy":196.39999389648438,"t":16608},{"dx":67.4000244140625,"dy":192.39999389648438,"t":16653},{"dx":85.4000244140625,"dy":198.39999389648438,"t":16685},{"dx":58.4000244140625,"dy":149.39999389648438,"t":16729},{"dx":33.4000244140625,"dy":127.39999389648438,"t":16759},{"dx":-10.5999755859375,"dy":80.39999389648438,"t":16806},{"dx":-30.5999755859375,"dy":58.399993896484375,"t":16836},{"dx":2.4000244140625,"dy":100.39999389648438,"t":16885},{"dx":35.4000244140625,"dy":131.39999389648438,"t":16965},{"dx":40.4000244140625,"dy":181.39999389648438,"t":17013},{"dx":50.4000244140625,"dy":184.39999389648438,"t":17044},{"dx":51.4000244140625,"dy":197.39999389648438,"t":17089},{"dx":50.4000244140625,"dy":176.39999389648438,"t":17118},{"dx":17.4000244140625,"dy":156.39999389648438,"t":17162},{"dx":13.4000244140625,"dy":158.39999389648438,"t":17193},{"dx":-44.5999755859375,"dy":138.39999389648438,"t":17238},{"dx":-63.5999755859375,"dy":126.39999389648438,"t":17269},{"dx":-5.5999755859375,"dy":131.39999389648438,"t":17316},{"dx":12.4000244140625,"dy":150.39999389648438,"t":17349},{"dx":-26.5999755859375,"dy":144.39999389648438,"t":17395},{"dx":-4.5999755859375,"dy":159.39999389648438,"t":17427},{"dx":-65.5999755859375,"dy":128.39999389648438,"t":17470},{"dx":-88.5999755859375,"dy":121.39999389648438,"t":17502},{"dx":-125.5999755859375,"dy":84.39999389648438,"t":17547},{"dx":-116.5999755859375,"dy":56.399993896484375,"t":17579},{"dx":-77.5999755859375,"dy":96.39999389648438,"t":17624},{"dx":-46.5999755859375,"dy":139.39999389648438,"t":17655},{"dx":10.4000244140625,"dy":137.39999389648438,"t":17699},{"dx":22.4000244140625,"dy":126.39999389648438,"t":17731},{"dx":5.4000244140625,"dy":128.39999389648438,"t":17776},{"dx":5.4000244140625,"dy":135.39999389648438,"t":17809},{"dx":26.4000244140625,"dy":168.39999389648438,"t":17854},{"dx":41.4000244140625,"dy":186.39999389648438,"t":17887},{"dx":85.4000244140625,"dy":208.39999389648438,"t":17934},{"dx":113.4000244140625,"dy":213.39999389648438,"t":17965},{"dx":144.4000244140625,"dy":220.39999389648438,"t":18011},{"dx":162.4000244140625,"dy":224.39999389648438,"t":18041},{"dx":90.4000244140625,"dy":165.39999389648438,"t":18085},{"dx":62.4000244140625,"dy":158.39999389648438,"t":18117},{"dx":58.4000244140625,"dy":185.39999389648438,"t":18161},{"dx":52.4000244140625,"dy":198.39999389648438,"t":18175}],[{"dx":-195,"dy":327,"t":19203},{"dx":-189,"dy":283,"t":19237},{"dx":-182,"dy":269,"t":19284},{"dx":-163,"dy":261,"t":19314},{"dx":-107,"dy":209,"t":19359},{"dx":-83,"dy":188,"t":19390},{"dx":-112,"dy":101,"t":19439},{"dx":-146,"dy":95,"t":19472},{"dx":-170,"dy":86,"t":19519},{"dx":-158,"dy":96,"t":19551},{"dx":-164,"dy":102,"t":19598},{"dx":-168,"dy":106,"t":19630},{"dx":-100,"dy":130,"t":19675},{"dx":-55,"dy":126,"t":19709},{"dx":-53,"dy":134,"t":19754},{"dx":-42,"dy":132,"t":19786},{"dx":-83,"dy":156,"t":19832},{"dx":-117,"dy":177,"t":19864},{"dx":-133,"dy":147,"t":19913},{"dx":-131,"dy":152,"t":19944},{"dx":-172,"dy":120,"t":19989},{"dx":-204,"dy":96,"t":20020},{"dx":-191,"dy":63,"t":20063},{"dx":-171,"dy":47,"t":20095},{"dx":-151,"dy":120,"t":20140},{"dx":-162,"dy":150,"t":20172},{"dx":-133,"dy":152,"t":20216},{"dx":-122,"dy":152,"t":20246},{"dx":-129,"dy":232,"t":20287},{"dx":-122,"dy":256,"t":20321},{"dx":-123,"dy":290,"t":20367},{"dx":-150,"dy":297,"t":20397},{"dx":-137,"dy":222,"t":20444},{"dx":-143,"dy":160,"t":20475},{"dx":-143,"dy":134,"t":20518},{"dx":-185,"dy":119,"t":20551},{"dx":-212,"dy":63,"t":20596},{"dx":-211,"dy":72,"t":20629},{"dx":-181,"dy":126,"t":20674},{"dx":-203,"dy":172,"t":20705},{"dx":-126,"dy":118,"t":20750},{"dx":-102,"dy":105,"t":20783},{"dx":-109,"dy":42,"t":20827},{"dx":-96,"dy":40,"t":20860},{"dx":-98,"dy":103,"t":20906},{"dx":-110,"dy":130,"t":20940},{"dx":-158,"dy":95,"t":20987},{"dx":-206,"dy":88,"t":21019},{"dx":-183,"dy":87,"t":21065},{"dx":-183,"dy":98,"t":21097},{"dx":-148,"dy":55,"t":21143},{"dx":-111,"dy":52,"t":21181},{"dx":-93,"dy":106,"t":21210}],[{"dx":-85,"dy":362,"t":22191},{"dx":-108,"dy":212,"t":22260},{"dx":-110,"dy":148,"t":22292},{"dx":-124,"dy":110,"t":22338},{"dx":-138,"dy":96,"t":22372},{"dx":-145,"dy":120,"t":22417},{"dx":-132,"dy":121,"t":22450},{"dx":-112,"dy":105,"t":22496},{"dx":-93,"dy":109,"t":22528},{"dx":-110,"dy":78,"t":22573},{"dx":-133,"dy":57,"t":22605},{"dx":-116,"dy":93,"t":22652},{"dx":-83,"dy":118,"t":22685},{"dx":-103,"dy":150,"t":22732},{"dx":-120,"dy":127,"t":22764},{"dx":-96,"dy":168,"t":22810},{"dx":-70,"dy":199,"t":22844},{"dx":-109,"dy":157,"t":22889},{"dx":-111,"dy":131,"t":22922},{"dx":-145,"dy":151,"t":22969},{"dx":-163,"dy":152,"t":23001},{"dx":-121,"dy":127,"t":23047},{"dx":-76,"dy":154,"t":23080},{"dx":-88,"dy":109,"t":23127},{"dx":-124,"dy":83,"t":23160},{"dx":-163,"dy":89,"t":23222},{"dx":-180,"dy":85,"t":23293},{"dx":-195,"dy":95,"t":23342},{"dx":-205,"dy":88,"t":23374},{"dx":-208,"dy":80,"t":23420},{"dx":-203,"dy":79,"t":23454},{"dx":-187,"dy":95,"t":23499},{"dx":-178,"dy":100,"t":23531},{"dx":-171,"dy":102,"t":23576},{"dx":-170,"dy":143,"t":23607},{"dx":-131,"dy":154,"t":23651},{"dx":-124,"dy":143,"t":23683},{"dx":-140,"dy":147,"t":23729},{"dx":-153,"dy":139,"t":23762},{"dx":-171,"dy":147,"t":23808},{"dx":-178,"dy":138,"t":23841},{"dx":-158,"dy":171,"t":23887},{"dx":-137,"dy":195,"t":23918},{"dx":-132,"dy":179,"t":23966},{"dx":-146,"dy":154,"t":23998},{"dx":-168,"dy":143,"t":24041},{"dx":-172,"dy":137,"t":24078},{"dx":-155,"dy":147,"t":24125},{"dx":-157,"dy":149,"t":24158},{"dx":-163,"dy":194,"t":24209},{"dx":-160,"dy":232,"t":24223}],[{"dx":-52,"dy":182,"t":25234},{"dx":-86,"dy":183,"t":25266},{"dx":-78,"dy":156,"t":25309},{"dx":-60,"dy":152,"t":25342},{"dx":69,"dy":151,"t":25388},{"dx":138,"dy":141,"t":25418},{"dx":172,"dy":106,"t":25464},{"dx":173,"dy":122,"t":25496},{"dx":99,"dy":120,"t":25539},{"dx":37,"dy":107,"t":25571},{"dx":-67,"dy":134,"t":25617},{"dx":-75,"dy":129,"t":25648},{"dx":-115,"dy":192,"t":25695},{"dx":-132,"dy":232,"t":25728},{"dx":-121,"dy":261,"t":25773},{"dx":-113,"dy":263,"t":25806},{"dx":-95,"dy":188,"t":25851},{"dx":-104,"dy":181,"t":25883},{"dx":-26,"dy":141,"t":25930},{"dx":23,"dy":133,"t":25961},{"dx":-71,"dy":146,"t":26008},{"dx":-108,"dy":152,"t":26039},{"dx":-119,"dy":165,"t":26085},{"dx":-110,"dy":167,"t":26117},{"dx":-84,"dy":164,"t":26166},{"dx":-82,"dy":164,"t":26199},{"dx":-150,"dy":223,"t":26245},{"dx":-190,"dy":228,"t":26277},{"dx":-232,"dy":326,"t":26323},{"dx":-260,"dy":406,"t":26355},{"dx":-390,"dy":461,"t":26401},{"dx":-408,"dy":445,"t":26434},{"dx":-391,"dy":367,"t":26478},{"dx":-366,"dy":306,"t":26510},{"dx":-257,"dy":207,"t":26555},{"dx":-218,"dy":139,"t":26587},{"dx":-141,"dy":135,"t":26633},{"dx":-117,"dy":135,"t":26664},{"dx":-111,"dy":87,"t":26709},{"dx":-118,"dy":77,"t":26741},{"dx":-105,"dy":81,"t":26787},{"dx":-124,"dy":86,"t":26818},{"dx":-94,"dy":146,"t":26865},{"dx":-81,"dy":181,"t":26898},{"dx":-104,"dy":139,"t":26942},{"dx":-88,"dy":135,"t":26975},{"dx":-96,"dy":101,"t":27019},{"dx":-136,"dy":125,"t":27050},{"dx":-117,"dy":56,"t":27097},{"dx":-132,"dy":44,"t":27129},{"dx":-122,"dy":60,"t":27174},{"dx":-107,"dy":58,"t":27212},{"dx":-23,"dy":63,"t":27242}],[{"dx":-212,"dy":455,"t":28248},{"dx":-160,"dy":368,"t":28279},{"dx":-36,"dy":318,"t":28324},{"dx":-22,"dy":293,"t":28355},{"dx":6,"dy":196,"t":28400},{"dx":9,"dy":153,"t":28430},{"dx":31,"dy":149,"t":28476},{"dx":32,"dy":165,"t":28506},{"dx":-33,"dy":183,"t":28553},{"dx":-68,"dy":198,"t":28584},{"dx":-89,"dy":196,"t":28630},{"dx":-112,"dy":186,"t":28663},{"dx":-51,"dy":168,"t":28709},{"dx":-45,"dy":176,"t":28740},{"dx":-28,"dy":153,"t":28786},{"dx":-20,"dy":160,"t":28818},{"dx":-23,"dy":121,"t":28865},{"dx":-47,"dy":100,"t":28897},{"dx":10,"dy":198,"t":28941},{"dx":59,"dy":229,"t":28974},{"dx":55,"dy":234,"t":29022},{"dx":43,"dy":227,"t":29053},{"dx":-3,"dy":195,"t":29097},{"dx":-12,"dy":177,"t":29130},{"dx":-66,"dy":172,"t":29175},{"dx":-86,"dy":179,"t":29207},{"dx":-39,"dy":155,"t":29254},{"dx":-32,"dy":145,"t":29285},{"dx":-52,"dy":168,"t":29328},{"dx":-58,"dy":190,"t":29358},{"dx":1,"dy":240,"t":29405},{"dx":35,"dy":205,"t":29437},{"dx":44,"dy":248,"t":29484},{"dx":80,"dy":285,"t":29515},{"dx":98,"dy":302,"t":29558},{"dx":98,"dy":273,"t":29591},{"dx":78,"dy":261,"t":29655},{"dx":44,"dy":210,"t":29720},{"dx":-54,"dy":130,"t":29767},{"dx":-89,"dy":103,"t":29798},{"dx":-65,"dy":161,"t":29840},{"dx":-50,"dy":195,"t":29869},{"dx":-94,"dy":230,"t":29910},{"dx":-102,"dy":236,"t":29940},{"dx":-34,"dy":241,"t":29985},{"dx":20,"dy":254,"t":30014},{"dx":22,"dy":249,"t":30058},{"dx":1,"dy":204,"t":30087},{"dx":27,"dy":231,"t":30130},{"dx":20,"dy":251,"t":30161},{"dx":45,"dy":254,"t":30205},{"dx":65,"dy":268,"t":30235},{"dx":87,"dy":159,"t":30263}],[{"dx":85.59999084472656,"dy":225.39999389648438,"t":31251},{"dx":74.59999084472656,"dy":195.39999389648438,"t":31320},{"dx":86.59999084472656,"dy":184.39999389648438,"t":31352},{"dx":101.59999084472656,"dy":199.39999389648438,"t":31397},{"dx":82.59999084472656,"dy":188.39999389648438,"t":31427},{"dx":64.59999084472656,"dy":145.39999389648438,"t":31470},{"dx":61.59999084472656,"dy":121.39999389648438,"t":31502},{"dx":115.59999084472656,"dy":179.39999389648438,"t":31548},{"dx":147.59999084472656,"dy":218.39999389648438,"t":31578},{"dx":118.59999084472656,"dy":258.3999938964844,"t":31623},{"dx":108.59999084472656,"dy":279.3999938964844,"t":31653},{"dx":90.59999084472656,"dy":247.39999389648438,"t":31696},{"dx":86.59999084472656,"dy":232.39999389648438,"t":31728},{"dx":111.59999084472656,"dy":213.39999389648438,"t":31773},{"dx":131.59999084472656,"dy":200.39999389648438,"t":31804},{"dx":129.59999084472656,"dy":198.39999389648438,"t":31851},{"dx":139.59999084472656,"dy":208.39999389648438,"t":31883},{"dx":89.59999084472656,"dy":185.39999389648438,"t":31928},{"dx":61.59999084472656,"dy":168.39999389648438,"t":31960},{"dx":76.59999084472656,"dy":181.39999389648438,"t":32003},{"dx":90.59999084472656,"dy":201.39999389648438,"t":32035},{"dx":95.59999084472656,"dy":220.39999389648438,"t":32081},{"dx":108.59999084472656,"dy":231.39999389648438,"t":32112},{"dx":111.59999084472656,"dy":220.39999389648438,"t":32158},{"dx":108.59999084472656,"dy":239.39999389648438,"t":32190},{"dx":111.59999084472656,"dy":273.3999938964844,"t":32234},{"dx":79.59999084472656,"dy":272.3999938964844,"t":32265},{"dx":89.59999084472656,"dy":258.3999938964844,"t":32310},{"dx":100.59999084472656,"dy":224.39999389648438,"t":32344},{"dx":120.59999084472656,"dy":211.39999389648438,"t":32389},{"dx":133.59999084472656,"dy":221.39999389648438,"t":32419},{"dx":105.59999084472656,"dy":179.39999389648438,"t":32463},{"dx":99.59999084472656,"dy":160.39999389648438,"t":32495},{"dx":88.59999084472656,"dy":153.39999389648438,"t":32541},{"dx":72.59999084472656,"dy":158.39999389648438,"t":32570},{"dx":61.59999084472656,"dy":158.39999389648438,"t":32616},{"dx":44.59999084472656,"dy":149.39999389648438,"t":32646},{"dx":75.59999084472656,"dy":187.39999389648438,"t":32691},{"dx":84.59999084472656,"dy":209.39999389648438,"t":32722},{"dx":127.59999084472656,"dy":232.39999389648438,"t":32768},{"dx":125.59999084472656,"dy":229.39999389648438,"t":32799},{"dx":179.59999084472656,"dy":273.3999938964844,"t":32843},{"dx":185.59999084472656,"dy":286.3999938964844,"t":32875},{"dx":174.59999084472656,"dy":301.3999938964844,"t":32921},{"dx":169.59999084472656,"dy":319.3999938964844,"t":32952},{"dx":142.59999084472656,"dy":309.3999938964844,"t":32999},{"dx":129.59999084472656,"dy":282.3999938964844,"t":33030},{"dx":127.59999084472656,"dy":289.3999938964844,"t":33074},{"dx":134.59999084472656,"dy":286.3999938964844,"t":33108},{"dx":145.59999084472656,"dy":316.3999938964844,"t":33150},{"dx":147.59999084472656,"dy":341.3999938964844,"t":33182},{"dx":158.59999084472656,"dy":292.3999938964844,"t":33228},{"dx":156.59999084472656,"dy":275.3999938964844,"t":33261},{"dx":110.59999084472656,"dy":247.39999389648438,"t":33289}],[{"dx":17,"dy":29,"t":34304},{"dx":10,"dy":9,"t":34337},{"dx":-24,"dy":-7,"t":34381},{"dx":-29,"dy":-1,"t":34412},{"dx":-42,"dy":-20,"t":34457},{"dx":-56,"dy":-37,"t":34490},{"dx":-65,"dy":-80,"t":34532},{"dx":-74,"dy":-86,"t":34563},{"dx":-32,"dy":-68,"t":34609},{"dx":1,"dy":-73,"t":34641},{"dx":30,"dy":-16,"t":34687},{"dx":52,"dy":12,"t":34718},{"dx":46,"dy":69,"t":34764},{"dx":51,"dy":89,"t":34795},{"dx":39,"dy":79,"t":34842},{"dx":29,"dy":46,"t":34874},{"dx":24,"dy":4,"t":34919},{"dx":1,"dy":-44,"t":34951},{"dx":-10,"dy":-76,"t":34996},{"dx":-8,"dy":-83,"t":35027},{"dx":-19,"dy":-49,"t":35073},{"dx":-22,"dy":-14,"t":35106},{"dx":-5,"dy":7,"t":35150},{"dx":9,"dy":5,"t":35181},{"dx":38,"dy":10,"t":35228},{"dx":39,"dy":6,"t":35260},{"dx":43,"dy":19,"t":35305},{"dx":31,"dy":26,"t":35337},{"dx":23,"dy":-31,"t":35382},{"dx":25,"dy":-34,"t":35413},{"dx":0,"dy":-30,"t":35459},{"dx":-34,"dy":-23,"t":35491},{"dx":-59,"dy":-76,"t":35536},{"dx":-23,"dy":-64,"t":35572},{"dx":3,"dy":-33,"t":35615},{"dx":6,"dy":-7,"t":35647},{"dx":9,"dy":-9,"t":35692},{"dx":-17,"dy":-15,"t":35723},{"dx":0,"dy":20,"t":35768},{"dx":13,"dy":18,"t":35800},{"dx":17,"dy":39,"t":35845},{"dx":17,"dy":52,"t":35877},{"dx":9,"dy":-12,"t":35919},{"dx":0,"dy":-45,"t":35950},{"dx":-5,"dy":-77,"t":36000},{"dx":-7,"dy":-69,"t":36042},{"dx":-30,"dy":-35,"t":36135},{"dx":-37,"dy":-26,"t":36166},{"dx":-48,"dy":-24,"t":36211},{"dx":-30,"dy":-34,"t":36240},{"dx":-11,"dy":-42,"t":36285},{"dx":-13,"dy":-53,"t":36298}],[{"dx":127,"dy":86,"t":37348},{"dx":128,"dy":71,"t":37389},{"dx":120,"dy":18,"t":37445},{"dx":113,"dy":-10,"t":37485},{"dx":57,"dy":-52,"t":37541},{"dx":33,"dy":-62,"t":37580},{"dx":69,"dy":14,"t":37636},{"dx":89,"dy":48,"t":37675},{"dx":143,"dy":64,"t":37732},{"dx":145,"dy":68,"t":37771},{"dx":139,"dy":119,"t":37828},{"dx":123,"dy":95,"t":37866},{"dx":149,"dy":129,"t":37923},{"dx":159,"dy":151,"t":37961},{"dx":152,"dy":140,"t":38016},{"dx":156,"dy":138,"t":38056},{"dx":132,"dy":126,"t":38113},{"dx":130,"dy":129,"t":38153},{"dx":84,"dy":103,"t":38209},{"dx":93,"dy":82,"t":38247},{"dx":89,"dy":89,"t":38303},{"dx":80,"dy":104,"t":38343},{"dx":98,"dy":80,"t":38402},{"dx":129,"dy":74,"t":38441},{"dx":53,"dy":18,"t":38497},{"dx":17,"dy":15,"t":38535},{"dx":53,"dy":76,"t":38591},{"dx":39,"dy":94,"t":38628},{"dx":4,"dy":107,"t":38685},{"dx":-22,"dy":120,"t":38725},{"dx":-54,"dy":255,"t":38782},{"dx":-73,"dy":344,"t":38822},{"dx":-127,"dy":317,"t":38877},{"dx":-83,"dy":350,"t":38917},{"dx":-67,"dy":244,"t":38975},{"dx":-95,"dy":195,"t":39014},{"dx":-118,"dy":125,"t":39071},{"dx":-142,"dy":63,"t":39109},{"dx":-97,"dy":79,"t":39166},{"dx":-82,"dy":106,"t":39205},{"dx":-10,"dy":119,"t":39261}]],"percent_in_roi":[86.53846153846155,1.8867924528301887,64.81481481481481,45.28301886792453,0,32.69230769230769,16.9811320754717,13.725490196078432,26.41509433962264,9.433962264150944,1.8518518518518516,100,53.65853658536586],"average_offset":[{"x":4.288461538461538,"y":53.96153846153846,"r":120.32149844900412},{"x":193.7886700900096,"y":-20.62643950840212,"r":71.39811368122727},{"x":-114.83333333333333,"y":-14.944444444444445,"r":100.21264880759063},{"x":11.39622641509434,"y":160.9811320754717,"r":48.060366840095554},{"x":-280.9703459563079,"y":-66.15928367332175,"r":89.13697524355817},{"x":41.49617826021635,"y":163.0730708195613,"r":87.1774544713269},{"x":-141.8679245283019,"y":140.35849056603774,"r":61.20669217465793},{"x":-139.6078431372549,"y":136.50980392156862,"r":41.893445142014436},{"x":-106.88679245283019,"y":170.73584905660377,"r":86.17942859188817},{"x":-14.566037735849056,"y":211.26415094339623,"r":65.64120301251242},{"x":110.45184269657841,"y":226.75184574833622,"r":71.41307703772678},{"x":-2.269230769230769,"y":-16.423076923076923,"r":56.71689149550083},{"x":47.146341463414636,"y":108.07317073170732,"r":97.83361903600589}],"samples_per_sec":"25.28","clicks":15,"pattern":"spread","trial_type":"webgazer-validate","trial_index":25,"time_elapsed":921790,"internal_node_id":"0.0-10.0-3.2","validation_points":[[37.5,62.5],[15,85],[75,75],[25,25],[85,85],[85,15],[50,50],[37.5,37.5],[62.5,62.5],[62.5,37.5],[15,15],[25,75],[75,25]],"user_agent":"Mozilla/5.0 (Windows NT 10.0; Win64; x64) AppleWebKit/537.36 (KHTML, like Gecko) Chrome/88.0.4324.190 Safari/537.36","screen_width_px":1536,"screen_height_px":864},{"rt":4258.4449999267235,"stimulus":"\n      <p>Round complete.</p>\n      <p>You can move a little bit, but please try to return you head to the same general location before continuing.</p>\n    ","response":0,"trial_type":"html-button-response","trial_index":26,"time_elapsed":926050,"internal_node_id":"0.0-10.0-4.2","user_agent":"Mozilla/5.0 (Windows NT 10.0; Win64; x64) AppleWebKit/537.36 (KHTML, like Gecko) Chrome/88.0.4324.190 Safari/537.36","screen_width_px":1536,"screen_height_px":864},{"trial_type":"webgazer-init-camera","trial_index":27,"time_elapsed":952487,"internal_node_id":"0.0-10.0-5.2","user_agent":"Mozilla/5.0 (Windows NT 10.0; Win64; x64) AppleWebKit/537.36 (KHTML, like Gecko) Chrome/88.0.4324.190 Safari/537.36","screen_width_px":1536,"screen_height_px":864},{"rt":1808.1649999367073,"stimulus":"\n      <p>Calibration phase next.</p>\n      <p>Click on the dots.</p>\n    ","response":0,"trial_type":"html-button-response","trial_index":28,"time_elapsed":954297,"internal_node_id":"0.0-10.0-0.3","user_agent":"Mozilla/5.0 (Windows NT 10.0; Win64; x64) AppleWebKit/537.36 (KHTML, like Gecko) Chrome/88.0.4324.190 Safari/537.36","screen_width_px":1536,"screen_height_px":864},{"trial_type":"webgazer-calibrate","trial_index":29,"time_elapsed":979606,"internal_node_id":"0.0-10.0-1.3","user_agent":"Mozilla/5.0 (Windows NT 10.0; Win64; x64) AppleWebKit/537.36 (KHTML, like Gecko) Chrome/88.0.4324.190 Safari/537.36","screen_width_px":1536,"screen_height_px":864},{"rt":1373.6750000389293,"stimulus":"\n      <p>Validation phase next.</p>\n      <p>Look at the dots.</p>\n    ","response":0,"trial_type":"html-button-response","trial_index":30,"time_elapsed":980982,"internal_node_id":"0.0-10.0-2.3","user_agent":"Mozilla/5.0 (Windows NT 10.0; Win64; x64) AppleWebKit/537.36 (KHTML, like Gecko) Chrome/88.0.4324.190 Safari/537.36","screen_width_px":1536,"screen_height_px":864},{"raw_gaze":[[{"dx":170,"dy":98,"t":1086},{"dx":166,"dy":92,"t":1117},{"dx":99,"dy":67,"t":1161},{"dx":67,"dy":72,"t":1192},{"dx":52,"dy":111,"t":1238},{"dx":48,"dy":126,"t":1270},{"dx":27,"dy":156,"t":1315},{"dx":20,"dy":167,"t":1346},{"dx":-6,"dy":93,"t":1392},{"dx":9,"dy":67,"t":1424},{"dx":46,"dy":101,"t":1471},{"dx":53,"dy":109,"t":1502},{"dx":58,"dy":155,"t":1551},{"dx":70,"dy":178,"t":1581},{"dx":-1,"dy":157,"t":1626},{"dx":16,"dy":134,"t":1656},{"dx":32,"dy":122,"t":1701},{"dx":35,"dy":124,"t":1733},{"dx":52,"dy":52,"t":1777},{"dx":57,"dy":32,"t":1808},{"dx":52,"dy":75,"t":1853},{"dx":36,"dy":107,"t":1885},{"dx":72,"dy":152,"t":1930},{"dx":113,"dy":154,"t":1962},{"dx":116,"dy":197,"t":2008},{"dx":114,"dy":207,"t":2040},{"dx":95,"dy":212,"t":2087},{"dx":65,"dy":233,"t":2118},{"dx":87,"dy":233,"t":2163},{"dx":107,"dy":234,"t":2196},{"dx":104,"dy":220,"t":2244},{"dx":89,"dy":217,"t":2274},{"dx":18,"dy":206,"t":2320},{"dx":3,"dy":202,"t":2365},{"dx":-9,"dy":175,"t":2432},{"dx":18,"dy":160,"t":2463},{"dx":64,"dy":170,"t":2509},{"dx":118,"dy":190,"t":2540},{"dx":105,"dy":189,"t":2585},{"dx":89,"dy":193,"t":2614},{"dx":95,"dy":184,"t":2658},{"dx":114,"dy":195,"t":2689},{"dx":109,"dy":229,"t":2732},{"dx":98,"dy":236,"t":2765},{"dx":54,"dy":259,"t":2808},{"dx":59,"dy":309,"t":2838},{"dx":-13,"dy":294,"t":2883},{"dx":-17,"dy":294,"t":2914},{"dx":-22,"dy":313,"t":2960},{"dx":-20,"dy":325,"t":2989},{"dx":-38,"dy":288,"t":3034},{"dx":-33,"dy":239,"t":3066},{"dx":-18,"dy":217,"t":3096}],[{"dx":-142.5999755859375,"dy":-9.4000244140625,"t":4111},{"dx":-128.5999755859375,"dy":-42.4000244140625,"t":4143},{"dx":-66.5999755859375,"dy":-38.4000244140625,"t":4188},{"dx":-50.5999755859375,"dy":-21.4000244140625,"t":4220},{"dx":-41.5999755859375,"dy":5.5999755859375,"t":4266},{"dx":-48.5999755859375,"dy":5.5999755859375,"t":4301},{"dx":-50.5999755859375,"dy":22.5999755859375,"t":4346},{"dx":-62.5999755859375,"dy":25.5999755859375,"t":4377},{"dx":-111.5999755859375,"dy":-12.4000244140625,"t":4422},{"dx":-139.5999755859375,"dy":-4.4000244140625,"t":4454},{"dx":-148.5999755859375,"dy":-4.4000244140625,"t":4499},{"dx":-141.5999755859375,"dy":-4.4000244140625,"t":4531},{"dx":-158.5999755859375,"dy":-25.4000244140625,"t":4578},{"dx":-188.5999755859375,"dy":-39.4000244140625,"t":4610},{"dx":-232.5999755859375,"dy":-13.4000244140625,"t":4652},{"dx":-229.5999755859375,"dy":3.5999755859375,"t":4683},{"dx":-319.5999755859375,"dy":42.5999755859375,"t":4730},{"dx":-366.5999755859375,"dy":78.5999755859375,"t":4761},{"dx":-327.5999755859375,"dy":-31.4000244140625,"t":4807},{"dx":-291.5999755859375,"dy":-54.4000244140625,"t":4838},{"dx":-283.5999755859375,"dy":-111.4000244140625,"t":4888},{"dx":-277.5999755859375,"dy":-154.4000244140625,"t":4921},{"dx":-259.5999755859375,"dy":-180.4000244140625,"t":4967},{"dx":-240.5999755859375,"dy":-198.4000244140625,"t":4999},{"dx":-237.5999755859375,"dy":-142.4000244140625,"t":5046},{"dx":-254.5999755859375,"dy":-103.4000244140625,"t":5078},{"dx":-236.5999755859375,"dy":-40.4000244140625,"t":5121},{"dx":-218.5999755859375,"dy":-16.4000244140625,"t":5154},{"dx":-197.5999755859375,"dy":-3.4000244140625,"t":5200},{"dx":-193.5999755859375,"dy":-4.4000244140625,"t":5233},{"dx":-207.5999755859375,"dy":-12.4000244140625,"t":5279},{"dx":-224.5999755859375,"dy":-22.4000244140625,"t":5311},{"dx":-209.5999755859375,"dy":-4.4000244140625,"t":5354},{"dx":-207.5999755859375,"dy":0.5999755859375,"t":5387},{"dx":-214.5999755859375,"dy":12.5999755859375,"t":5432},{"dx":-214.5999755859375,"dy":24.5999755859375,"t":5464},{"dx":-223.5999755859375,"dy":-2.4000244140625,"t":5510},{"dx":-207.5999755859375,"dy":-8.4000244140625,"t":5540},{"dx":-240.5999755859375,"dy":-19.4000244140625,"t":5584},{"dx":-267.5999755859375,"dy":-35.4000244140625,"t":5616},{"dx":-266.5999755859375,"dy":-59.4000244140625,"t":5661},{"dx":-259.5999755859375,"dy":-56.4000244140625,"t":5692},{"dx":-226.5999755859375,"dy":-62.4000244140625,"t":5741},{"dx":-228.5999755859375,"dy":-72.4000244140625,"t":5772},{"dx":-245.5999755859375,"dy":-85.4000244140625,"t":5818},{"dx":-259.5999755859375,"dy":-90.4000244140625,"t":5850},{"dx":-210.5999755859375,"dy":-19.4000244140625,"t":5896},{"dx":-180.5999755859375,"dy":19.5999755859375,"t":5926},{"dx":-155.5999755859375,"dy":51.5999755859375,"t":5972},{"dx":-139.5999755859375,"dy":82.5999755859375,"t":6003},{"dx":-183.5999755859375,"dy":74.5999755859375,"t":6046},{"dx":-208.5999755859375,"dy":61.5999755859375,"t":6078},{"dx":-198.5999755859375,"dy":9.5999755859375,"t":6108}],[{"dx":-193,"dy":100,"t":7124},{"dx":-193,"dy":113,"t":7156},{"dx":-153,"dy":152,"t":7202},{"dx":-121,"dy":187,"t":7231},{"dx":-23,"dy":296,"t":7276},{"dx":19,"dy":362,"t":7307},{"dx":45,"dy":422,"t":7352},{"dx":64,"dy":433,"t":7383},{"dx":45,"dy":403,"t":7431},{"dx":8,"dy":354,"t":7461},{"dx":-46,"dy":284,"t":7508},{"dx":-84,"dy":263,"t":7539},{"dx":-99,"dy":203,"t":7585},{"dx":-133,"dy":