[{"rt":30566.389999999956,"stimulus":"\n      <p>You can elect whether to include your data in our research dataset.</p>\n    ","response":0,"question":"consent","trial_type":"html-button-response","trial_index":0,"time_elapsed":30573,"internal_node_id":"0.0-0.0","user_agent":"Mozilla/5.0 (Macintosh; Intel Mac OS X 10_15_2) AppleWebKit/537.36 (KHTML, like Gecko) Chrome/89.0.4389.82 Safari/537.36","screen_width_px":1366,"screen_height_px":768},{"rt":16145.495000004303,"stimulus":"\n      <p>This experiment uses your camera for eye tracking.</p>\n      <p>No video is saved from this experiment. The only data recorded are predictions about where you are looking.</p>\n      <p>Before we begin, there are a few things to do that can improve the accuracy of the eye tracking.</p>\n    ","response":0,"trial_type":"html-button-response","trial_index":1,"time_elapsed":46723,"internal_node_id":"0.0-1.0","user_agent":"Mozilla/5.0 (Macintosh; Intel Mac OS X 10_15_2) AppleWebKit/537.36 (KHTML, like Gecko) Chrome/89.0.4389.82 Safari/537.36","screen_width_px":1366,"screen_height_px":768},{"rt":2548.0250000036904,"stimulus":"\n      <p>If you wear glasses and can complete the task without them, please remove your glasses.</p>\n    ","response":0,"trial_type":"html-button-response","trial_index":2,"time_elapsed":49273,"internal_node_id":"0.0-2.0","user_agent":"Mozilla/5.0 (Macintosh; Intel Mac OS X 10_15_2) AppleWebKit/537.36 (KHTML, like Gecko) Chrome/89.0.4389.82 Safari/537.36","screen_width_px":1366,"screen_height_px":768},{"rt":18494.84000000666,"stimulus":"\n      <p>Please close additional browser tabs and apps running in the background.<br>The eye tracker works best when there are fewer things running at the same time.</p>\n    ","response":0,"trial_type":"html-button-response","trial_index":3,"time_elapsed":67770,"internal_node_id":"0.0-3.0","user_agent":"Mozilla/5.0 (Macintosh; Intel Mac OS X 10_15_2) AppleWebKit/537.36 (KHTML, like Gecko) Chrome/89.0.4389.82 Safari/537.36","screen_width_px":1366,"screen_height_px":768},{"rt":3006.6599999991013,"stimulus":"\n      <p>Try to avoid bright lights behind you.<br>The eye tracker works best if your face is well lit from the front.<br>If you can, adjust the lighting in your room.</p>\n    ","response":0,"trial_type":"html-button-response","trial_index":4,"time_elapsed":70778,"internal_node_id":"0.0-4.0","user_agent":"Mozilla/5.0 (Macintosh; Intel Mac OS X 10_15_2) AppleWebKit/537.36 (KHTML, like Gecko) Chrome/89.0.4389.82 Safari/537.36","screen_width_px":1366,"screen_height_px":768},{"rt":2382.785000001604,"stimulus":"\n      <p>In order to participate you must allow the experiment to use your camera.</p>\n      <p>You will be prompted to do this on the next screen.</p>\n    ","response":0,"trial_type":"html-button-response","trial_index":5,"time_elapsed":73162,"internal_node_id":"0.0-5.0","user_agent":"Mozilla/5.0 (Macintosh; Intel Mac OS X 10_15_2) AppleWebKit/537.36 (KHTML, like Gecko) Chrome/89.0.4389.82 Safari/537.36","screen_width_px":1366,"screen_height_px":768},{"trial_type":"webgazer-init-camera","trial_index":6,"time_elapsed":113193,"internal_node_id":"0.0-6.0","user_agent":"Mozilla/5.0 (Macintosh; Intel Mac OS X 10_15_2) AppleWebKit/537.36 (KHTML, like Gecko) Chrome/89.0.4389.82 Safari/537.36","screen_width_px":1366,"screen_height_px":768},{"rt":2448.179999999411,"stimulus":"\n      <p>Now you'll complete a series of calibrations and validations.</p>\n      <p>The calibration will be reset after each round, so it is OK to move a little bit<br>in between the end of a validation and the start of the next calibration.</p>\n      <p>Please keep your head still during each round.</p>\n    ","response":0,"trial_type":"html-button-response","trial_index":7,"time_elapsed":115643,"internal_node_id":"0.0-7.0","user_agent":"Mozilla/5.0 (Macintosh; Intel Mac OS X 10_15_2) AppleWebKit/537.36 (KHTML, like Gecko) Chrome/89.0.4389.82 Safari/537.36","screen_width_px":1366,"screen_height_px":768},{"success":true,"trial_type":"fullscreen","trial_index":8,"time_elapsed":118766,"internal_node_id":"0.0-8.0","user_agent":"Mozilla/5.0 (Macintosh; Intel Mac OS X 10_15_2) AppleWebKit/537.36 (KHTML, like Gecko) Chrome/89.0.4389.82 Safari/537.36","screen_width_px":1366,"screen_height_px":768},{"rt":2171.39500000485,"stimulus":"\n      <p>During the calibration phase, please look at each dot and click on it.</p>\n      <p>During the validation phase, just look at each dot while it is on the screen.</p>\n    ","response":0,"trial_type":"html-button-response","trial_index":9,"time_elapsed":120939,"internal_node_id":"0.0-9.0","user_agent":"Mozilla/5.0 (Macintosh; Intel Mac OS X 10_15_2) AppleWebKit/537.36 (KHTML, like Gecko) Chrome/89.0.4389.82 Safari/537.36","screen_width_px":1366,"screen_height_px":768},{"rt":510.7800000041607,"stimulus":"\n      <p>Calibration phase next.</p>\n      <p>Click on the dots.</p>\n    ","response":0,"trial_type":"html-button-response","trial_index":10,"time_elapsed":121451,"internal_node_id":"0.0-10.0-0.0","user_agent":"Mozilla/5.0 (Macintosh; Intel Mac OS X 10_15_2) AppleWebKit/537.36 (KHTML, like Gecko) Chrome/89.0.4389.82 Safari/537.36","screen_width_px":1366,"screen_height_px":768},{"trial_type":"webgazer-calibrate","trial_index":11,"time_elapsed":165564,"internal_node_id":"0.0-10.0-1.0","user_agent":"Mozilla/5.0 (Macintosh; Intel Mac OS X 10_15_2) AppleWebKit/537.36 (KHTML, like Gecko) Chrome/89.0.4389.82 Safari/537.36","screen_width_px":1366,"screen_height_px":768},{"rt":1246.934999995574,"stimulus":"\n      <p>Validation phase next.</p>\n      <p>Look at the dots.</p>\n    ","response":0,"trial_type":"html-button-response","trial_index":12,"time_elapsed":166813,"internal_node_id":"0.0-10.0-2.0","user_agent":"Mozilla/5.0 (Macintosh; Intel Mac OS X 10_15_2) AppleWebKit/537.36 (KHTML, like Gecko) Chrome/89.0.4389.82 Safari/537.36","screen_width_px":1366,"screen_height_px":768},{"raw_gaze":[[{"dx":194.75,"dy":-73,"t":1712},{"dx":27.75,"dy":-73,"t":2827},{"dx":-92.25,"dy":-52,"t":3935}],[{"dx":-283,"dy":53,"t":5048},{"dx":-280,"dy":5,"t":6167},{"dx":-272,"dy":-6,"t":7271}],[{"dx":-696.09375,"dy":-314.796875,"t":8387},{"dx":-372.09375,"dy":-223.796875,"t":9499},{"dx":-106.09375,"dy":-160.796875,"t":10617}],[{"dx":328.25,"dy":44,"t":11981},{"dx":221.25,"dy":16,"t":13112},{"dx":132.25,"dy":-21,"t":14223}],[{"dx":739.109375,"dy":-211.796875,"t":15339},{"dx":371.109375,"dy":-153.796875,"t":16445},{"dx":134.109375,"dy":-95.796875,"t":17571}],[{"dx":-155.5,"dy":410,"t":18674},{"dx":-243.5,"dy":245,"t":19780},{"dx":-308.5,"dy":139,"t":20907}],[{"dx":-935.5,"dy":-305,"t":22013},{"dx":-565.5,"dy":-215,"t":23137},{"dx":-267.5,"dy":-69,"t":24243}],[{"dx":-245.09375,"dy":452.8125,"t":25350},{"dx":-40.09375,"dy":247.8125,"t":26694},{"dx":74.90625,"dy":115.8125,"t":27840}],[{"dx":270.5,"dy":-23,"t":28952},{"dx":195.5,"dy":-52,"t":30079},{"dx":164.5,"dy":-28,"t":31193}],[{"dx":298.25,"dy":-139,"t":32505},{"dx":141.25,"dy":33,"t":33655},{"dx":74.25,"dy":0,"t":34770}],[{"dx":552.5,"dy":-332,"t":35890},{"dx":177.5,"dy":-276,"t":37001},{"dx":2.5,"dy":-116,"t":38133}],[{"dx":-263.25,"dy":281,"t":39255},{"dx":-277.25,"dy":194,"t":40372},{"dx":-213.25,"dy":135,"t":41516}],[{"dx":186.109375,"dy":224.8125,"t":42626},{"dx":-24.890625,"dy":157.8125,"t":43734}]],"percent_in_roi":[66.66666666666666,0,0,33.33333333333333,0,0,0,33.33333333333333,0,66.66666666666666,33.33333333333333,0,0],"average_offset":[{"x":43.416666666666664,"y":-66,"r":136.38711245731557},{"x":-278.3333333333333,"y":17.333333333333332,"r":24.177583741051446},{"x":-391.4270833333333,"y":-233.13020833333334,"r":294.35900227820827},{"x":227.25,"y":13,"r":100.90094152187085},{"x":414.7760416666667,"y":-153.796875,"r":286.5968907329209},{"x":-235.83333333333334,"y":264.6666666666667,"r":145.16389205155517},{"x":-589.5,"y":-196.33333333333334,"r":346.2625850099571},{"x":-70.09375,"y":272.1458333333333,"r":213.22549357689644},{"x":210.16666666666666,"y":-34.333333333333336,"r":46.10374773872027},{"x":171.25,"y":-35.333333333333336,"r":103.23489935309883},{"x":244.16666666666666,"y":-241.33333333333334,"r":272.2337639276624},{"x":-251.25,"y":203.33333333333334,"r":78.18851862290553},{"x":80.609375,"y":191.3125,"r":166.03651706778243}],"samples_per_sec":"0.89","clicks":15,"pattern":"spread","trial_type":"webgazer-validate","trial_index":13,"time_elapsed":212123,"internal_node_id":"0.0-10.0-3.0","validation_points":[[37.5,62.5],[50,50],[85,85],[62.5,62.5],[15,85],[25,25],[75,75],[85,15],[75,25],[62.5,37.5],[25,75],[37.5,37.5],[15,15]],"user_agent":"Mozilla/5.0 (Macintosh; Intel Mac OS X 10_15_2) AppleWebKit/537.36 (KHTML, like Gecko) Chrome/89.0.4389.82 Safari/537.36","screen_width_px":1366,"screen_height_px":768},{"rt":6040.30000000057,"stimulus":"\n      <p>Round complete.</p>\n      <p>You can move a little bit, but please try to return you head to the same general location before continuing.</p>\n    ","response":0,"trial_type":"html-button-response","trial_index":14,"time_elapsed":218166,"internal_node_id":"0.0-10.0-4.0","user_agent":"Mozilla/5.0 (Macintosh; Intel Mac OS X 10_15_2) AppleWebKit/537.36 (KHTML, like Gecko) Chrome/89.0.4389.82 Safari/537.36","screen_width_px":1366,"screen_height_px":768},{"trial_type":"webgazer-init-camera","trial_index":15,"time_elapsed":222783,"internal_node_id":"0.0-10.0-5.0","user_agent":"Mozilla/5.0 (Macintosh; Intel Mac OS X 10_15_2) AppleWebKit/537.36 (KHTML, like Gecko) Chrome/89.0.4389.82 Safari/537.36","screen_width_px":1366,"screen_height_px":768},{"rt":1076.3349999979255,"stimulus":"\n      <p>Calibration phase next.</p>\n      <p>Click on the dots.</p>\n    ","response":0,"trial_type":"html-button-response","trial_index":16,"time_elapsed":223862,"internal_node_id":"0.0-10.0-0.1","user_agent":"Mozilla/5.0 (Macintosh; Intel Mac OS X 10_15_2) AppleWebKit/537.36 (KHTML, like Gecko) Chrome/89.0.4389.82 Safari/537.36","screen_width_px":1366,"screen_height_px":768},{"trial_type":"webgazer-calibrate","trial_index":17,"time_elapsed":237448,"internal_node_id":"0.0-10.0-1.1","user_agent":"Mozilla/5.0 (Macintosh; Intel Mac OS X 10_15_2) AppleWebKit/537.36 (KHTML, like Gecko) Chrome/89.0.4389.82 Safari/537.36","screen_width_px":1366,"screen_height_px":768},{"rt":948.949999998149,"stimulus":"\n      <p>Validation phase next.</p>\n      <p>Look at the dots.</p>\n    ","response":0,"trial_type":"html-button-response","trial_index":18,"time_elapsed":238399,"internal_node_id":"0.0-10.0-2.1","user_agent":"Mozilla/5.0 (Macintosh; Intel Mac OS X 10_15_2) AppleWebKit/537.36 (KHTML, like Gecko) Chrome/89.0.4389.82 Safari/537.36","screen_width_px":1366,"screen_height_px":768},{"raw_gaze":[[{"dx":137.75,"dy":138,"t":1685},{"dx":114.75,"dy":67,"t":2805},{"dx":138.75,"dy":-15,"t":3916}],[{"dx":-49,"dy":-125,"t":5043},{"dx":48,"dy":-132,"t":6151},{"dx":55,"dy":-112,"t":7254}],[{"dx":-82.75,"dy":-181,"t":8387},{"dx":6.25,"dy":-157,"t":9498},{"dx":50.25,"dy":-98,"t":10618}],[{"dx":-154.5,"dy":-157,"t":11806},{"dx":-128.5,"dy":-108,"t":12938},{"dx":-112.5,"dy":-91,"t":14088}],[{"dx":712.109375,"dy":-172.796875,"t":15199},{"dx":441.109375,"dy":-166.796875,"t":16312},{"dx":255.109375,"dy":-155.796875,"t":17428}],[{"dx":-665.5,"dy":339,"t":18539},{"dx":-520.5,"dy":302,"t":19658},{"dx":-354.5,"dy":260,"t":20762}],[{"dx":-99.75,"dy":112,"t":21890},{"dx":-40.75,"dy":79,"t":23005},{"dx":3.25,"dy":96,"t":24115}],[{"dx":361.75,"dy":-97,"t":25224},{"dx":211.75,"dy":-107,"t":26351},{"dx":130.75,"dy":-113,"t":27458}],[{"dx":269.5,"dy":224,"t":28575},{"dx":144.5,"dy":218,"t":29690},{"dx":57.5,"dy":202,"t":30794}],[{"dx":137.109375,"dy":268.8125,"t":31912},{"dx":112.109375,"dy":238.8125,"t":33014},{"dx":101.109375,"dy":240.8125,"t":34131}],[{"dx":-70.5,"dy":-229,"t":35241},{"dx":32.5,"dy":-202,"t":36346},{"dx":130.5,"dy":-169,"t":37462}],[{"dx":-670.09375,"dy":306.8125,"t":38572},{"dx":-483.09375,"dy":294.8125,"t":39690},{"dx":-357.09375,"dy":281.8125,"t":40796}],[{"dx":-313.09375,"dy":-255.796875,"t":41904},{"dx":-240.09375,"dy":-249.796875,"t":43031}]],"percent_in_roi":[66.66666666666666,100,33.33333333333333,33.33333333333333,0,0,100,0,0,0,0,0,0],"average_offset":[{"x":130.41666666666666,"y":63.333333333333336,"r":75.02592144645001},{"x":18,"y":-123,"r":38.600518131237564},{"x":-8.75,"y":-145.33333333333334,"r":75.64023033045606},{"x":-131.83333333333334,"y":-118.66666666666667,"r":33.75236617219929},{"x":469.4427083333333,"y":-165.13020833333334,"r":214.53645118927665},{"x":-513.5,"y":300.3333333333333,"r":156.8410377137027},{"x":-45.75,"y":95.66666666666667,"r":49.00113377373131},{"x":234.75,"y":-105.66666666666667,"r":104.25822642735574},{"x":157.16666666666666,"y":214.66666666666666,"r":100.46834769661979},{"x":116.77604166666667,"y":249.47916666666666,"r":17.904065335994378},{"x":30.833333333333332,"y":-200,"r":104.37645541234117},{"x":-503.4270833333333,"y":294.4791666666667,"r":146.8805259007772},{"x":-276.59375,"y":-252.796875,"r":54.93462023168996}],"samples_per_sec":"0.90","clicks":5,"pattern":"spread","trial_type":"webgazer-validate","trial_index":19,"time_elapsed":282993,"internal_node_id":"0.0-10.0-3.1","validation_points":[[37.5,37.5],[50,50],[62.5,62.5],[75,75],[15,85],[75,25],[62.5,37.5],[37.5,62.5],[25,25],[15,15],[25,75],[85,15],[85,85]],"user_agent":"Mozilla/5.0 (Macintosh; Intel Mac OS X 10_15_2) AppleWebKit/537.36 (KHTML, like Gecko) Chrome/89.0.4389.82 Safari/537.36","screen_width_px":1366,"screen_height_px":768},{"rt":2835.9249999994063,"stimulus":"\n      <p>Round complete.</p>\n      <p>You can move a little bit, but please try to return you head to the same general location before continuing.</p>\n    ","response":0,"trial_type":"html-button-response","trial_index":20,"time_elapsed":285832,"internal_node_id":"0.0-10.0-4.1","user_agent":"Mozilla/5.0 (Macintosh; Intel Mac OS X 10_15_2) AppleWebKit/537.36 (KHTML, like Gecko) Chrome/89.0.4389.82 Safari/537.36","screen_width_px":1366,"screen_height_px":768},{"trial_type":"webgazer-init-camera","trial_index":21,"time_elapsed":309962,"internal_node_id":"0.0-10.0-5.1","user_agent":"Mozilla/5.0 (Macintosh; Intel Mac OS X 10_15_2) AppleWebKit/537.36 (KHTML, like Gecko) Chrome/89.0.4389.82 Safari/537.36","screen_width_px":1366,"screen_height_px":768},{"rt":900.0450000021374,"stimulus":"\n      <p>Calibration phase next.</p>\n      <p>Click on the dots.</p>\n    ","response":0,"trial_type":"html-button-response","trial_index":22,"time_elapsed":310864,"internal_node_id":"0.0-10.0-0.2","user_agent":"Mozilla/5.0 (Macintosh; Intel Mac OS X 10_15_2) AppleWebKit/537.36 (KHTML, like Gecko) Chrome/89.0.4389.82 Safari/537.36","screen_width_px":1366,"screen_height_px":768},{"trial_type":"webgazer-calibrate","trial_index":23,"time_elapsed":349020,"internal_node_id":"0.0-10.0-1.2","user_agent":"Mozilla/5.0 (Macintosh; Intel Mac OS X 10_15_2) AppleWebKit/537.36 (KHTML, like Gecko) Chrome/89.0.4389.82 Safari/537.36","screen_width_px":1366,"screen_height_px":768},{"rt":1074.9199999991106,"stimulus":"\n      <p>Validation phase next.</p>\n      <p>Look at the dots.</p>\n    ","response":0,"trial_type":"html-button-response","trial_index":24,"time_elapsed":350097,"internal_node_id":"0.0-10.0-2.2","user_agent":"Mozilla/5.0 (Macintosh; Intel Mac OS X 10_15_2) AppleWebKit/537.36 (KHTML, like Gecko) Chrome/89.0.4389.82 Safari/537.36","screen_width_px":1366,"screen_height_px":768},{"raw_gaze":[[{"dx":207.75,"dy":78,"t":1824},{"dx":105.75,"dy":-11,"t":3041},{"dx":3.75,"dy":-29,"t":4255}],[{"dx":125.5,"dy":44,"t":5471},{"dx":46.5,"dy":41,"t":6716},{"dx":-13.5,"dy":0,"t":7923}],[{"dx":-207.25,"dy":-272,"t":9146},{"dx":-62.25,"dy":-210,"t":10355},{"dx":71.75,"dy":-154,"t":11566}],[{"dx":304.5,"dy":-193,"t":12788},{"dx":224.5,"dy":-97,"t":13997},{"dx":160.5,"dy":-47,"t":15234}],[{"dx":-714.09375,"dy":-76.796875,"t":16452},{"dx":-401.09375,"dy":-39.796875,"t":17679},{"dx":-205.09375,"dy":-24.796875,"t":18916}],[{"dx":25.5,"dy":52,"t":20125},{"dx":116.5,"dy":41,"t":21318},{"dx":123.5,"dy":15,"t":22435}],[{"dx":472,"dy":186,"t":23567},{"dx":326,"dy":60,"t":24678},{"dx":184,"dy":-54,"t":25791}],[{"dx":-233.5,"dy":102,"t":26917},{"dx":-219.5,"dy":69,"t":28025},{"dx":-133.5,"dy":28,"t":29132}],[{"dx":29.25,"dy":-88,"t":30255},{"dx":-18.75,"dy":-94,"t":31372},{"dx":-42.75,"dy":-76,"t":32492}],[{"dx":-69.75,"dy":-254,"t":33598},{"dx":-6.75,"dy":-174,"t":34718},{"dx":29.25,"dy":-110,"t":35845}],[{"dx":743.109375,"dy":-211.796875,"t":36976},{"dx":543.109375,"dy":-52.796875,"t":38100},{"dx":309.109375,"dy":1.203125,"t":39220}],[{"dx":101.109375,"dy":547.8125,"t":40325},{"dx":-59.890625,"dy":339.8125,"t":41441},{"dx":-170.890625,"dy":155.8125,"t":42553}],[{"dx":-1178.09375,"dy":100.8125,"t":43671},{"dx":-780.09375,"dy":76.8125,"t":44777}]],"percent_in_roi":[66.66666666666666,100,0,0,0,100,0,33.33333333333333,100,33.33333333333333,0,0,0],"average_offset":[{"x":105.75,"y":12.666666666666666,"r":110.18217238333573},{"x":52.833333333333336,"y":28.333333333333332,"r":72.1310535684104},{"x":-65.91666666666667,"y":-212,"r":149.38577948088337},{"x":229.83333333333334,"y":-112.33333333333333,"r":95.26571028211333},{"x":-440.09375,"y":-47.130208333333336,"r":236.0588438880818},{"x":88.5,"y":36,"r":40.8166632639171},{"x":327.3333333333333,"y":64,"r":185.65679207732865},{"x":-195.5,"y":66.33333333333333,"r":52.116322885552},{"x":-10.75,"y":-86,"r":33.52610922848042},{"x":-15.75,"y":-179.33333333333334,"r":82.6565854067969},{"x":531.7760416666666,"y":-87.796875,"r":239.79458802159076},{"x":-43.223958333333336,"y":347.8125,"r":230.5705483746304},{"x":-979.09375,"y":88.8125,"r":299.0422210992956}],"samples_per_sec":"0.86","clicks":15,"pattern":"cond","trial_type":"webgazer-validate","trial_index":25,"time_elapsed":396451,"internal_node_id":"0.0-10.0-3.2","validation_points":[[37.5,37.5],[25,25],[37.5,62.5],[25,75],[85,85],[75,75],[50,50],[75,25],[62.5,37.5],[62.5,62.5],[15,85],[15,15],[85,15]],"user_agent":"Mozilla/5.0 (Macintosh; Intel Mac OS X 10_15_2) AppleWebKit/537.36 (KHTML, like Gecko) Chrome/89.0.4389.82 Safari/537.36","screen_width_px":1366,"screen_height_px":768},{"rt":5629.374999996799,"stimulus":"\n      <p>Round complete.</p>\n      <p>You can move a little bit, but please try to return you head to the same general location before continuing.</p>\n    ","response":0,"trial_type":"html-button-response","trial_index":26,"time_elapsed":402083,"internal_node_id":"0.0-10.0-4.2","user_agent":"Mozilla/5.0 (Macintosh; Intel Mac OS X 10_15_2) AppleWebKit/537.36 (KHTML, like Gecko) Chrome/89.0.4389.82 Safari/537.36","screen_width_px":1366,"screen_height_px":768},{"trial_type":"webgazer-init-camera","trial_index":27,"time_elapsed":416008,"internal_node_id":"0.0-10.0-5.2","user_agent":"Mozilla/5.0 (Macintosh; Intel Mac OS X 10_15_2) AppleWebKit/537.36 (KHTML, like Gecko) Chrome/89.0.4389.82 Safari/537.36","screen_width_px":1366,"screen_height_px":768},{"rt":1215.7450000013341,"stimulus":"\n      <p>Calibration phase next.</p>\n      <p>Click on the dots.</p>\n    ","response":0,"trial_type":"html-button-response","trial_index":28,"time_elapsed":417227,"internal_node_id":"0.0-10.0-0.3","user_agent":"Mozilla/5.0 (Macintosh; Intel Mac OS X 10_15_2) AppleWebKit/537.36 (KHTML, like Gecko) Chrome/89.0.4389.82 Safari/537.36","screen_width_px":1366,"screen_height_px":768},{"trial_type":"webgazer-calibrate","trial_index":29,"time_elapsed":475946,"internal_node_id":"0.0-10.0-1.3","user_agent":"Mozilla/5.0 (Macintosh; Intel Mac OS X 10_15_2) AppleWebKit/537.36 (KHTML, like Gecko) Chrome/89.0.4389.82 Safari/537.36","screen_width_px":1366,"screen_height_px":768},{"rt":1153.200000000652,"stimulus":"\n      <p>Validation phase next.</p>\n      <p>Look at the dots.</p>\n    ","response":0,"trial_type":"html-button-response","trial_index":30,"time_elapsed":477101,"internal_node_id":"0.0-10.0-2.3","user_agent":"Mozilla/5.0 (Macintosh; Intel Mac OS X 10_15_2) AppleWebKit/537.36 (KHTML, like Gecko) Chrome/89.0.4389.82 Safari/537.36","screen_width_px":1366,"screen_height_px":768},{"raw_gaze":[[{"dx":-569.09375,"dy":-116.796875,"t":1687},{"dx":-383.09375,"dy":-69.796875,"t":2790},{"dx":-253.09375,"dy":-47.796875,"t":3907}],[{"dx":302,"dy":224,"t":5018},{"dx":223,"dy":134,"t":6122},{"dx":132,"dy":154,"t":7252}],[{"dx":-112.75,"dy":257,"t":8357},{"dx":-93.75,"dy":117,"t":9473},{"dx":-63.75,"dy":50,"t":10599}],[{"dx":596.109375,"dy":243.8125,"t":11708},{"dx":391.109375,"dy":109.8125,"t":12823},{"dx":275.109375,"dy":-23.1875,"t":13928}],[{"dx":47.5,"dy":-143,"t":15046},{"dx":5.5,"dy":-80,"t":16180},{"dx":-40.5,"dy":-85,"t":17297}],[{"dx":-687.5,"dy":-27,"t":18423},{"dx":-369.5,"dy":-4,"t":19530},{"dx":-95.5,"dy":28,"t":20644}],[{"dx":84.5,"dy":-328,"t":21785},{"dx":116.5,"dy":-178,"t":23558},{"dx":11.5,"dy":-1,"t":24691}],[{"dx":627.5,"dy":89,"t":25813},{"dx":328.5,"dy":144,"t":26919},{"dx":100.5,"dy":140,"t":28036}],[{"dx":-546.75,"dy":247,"t":29142},{"dx":-360.75,"dy":173,"t":30247},{"dx":-191.75,"dy":116,"t":31384}],[{"dx":258.75,"dy":80,"t":32515},{"dx":210.75,"dy":53,"t":33641},{"dx":78.75,"dy":56,"t":34747}],[{"dx":327.109375,"dy":-70.796875,"t":35852},{"dx":196.109375,"dy":-29.796875,"t":36969},{"dx":114.109375,"dy":-6.796875,"t":38075}],[{"dx":-881.09375,"dy":548.8125,"t":39208},{"dx":-621.09375,"dy":414.8125,"t":40334},{"dx":-440.09375,"dy":272.8125,"t":41438}],[{"dx":351.75,"dy":-4,"t":42571},{"dx":245.75,"dy":-84,"t":43676}]],"percent_in_roi":[0,0,66.66666666666666,0,66.66666666666666,33.33333333333333,33.33333333333333,0,0,33.33333333333333,33.33333333333333,0,0],"average_offset":[{"x":-401.7604166666667,"y":-78.13020833333333,"r":151.72965724896665},{"x":219,"y":170.66666666666666,"r":88.5820398149522},{"x":-90.08333333333333,"y":141.33333333333334,"r":95.0537859436552},{"x":420.7760416666667,"y":110.14583333333333,"r":197.47545557753642},{"x":4.166666666666667,"y":-102.66666666666667,"r":48.03355308763055},{"x":-384.1666666666667,"y":-1,"r":290.11970709423457},{"x":70.83333333333333,"y":-169,"r":159.5862706431157},{"x":352.1666666666667,"y":124.33333333333333,"r":252.15383311692005},{"x":-366.4166666666667,"y":178.66666666666666,"r":185.5681965088726},{"x":182.75,"y":63,"r":77.87810988975015},{"x":212.44270833333334,"y":-35.796875,"r":102.52045866286615},{"x":-647.4270833333334,"y":412.1458333333333,"r":249.80169913130874},{"x":298.75,"y":-44,"r":99.60045180620418}],"samples_per_sec":"0.88","clicks":25,"pattern":"spread","trial_type":"webgazer-validate","trial_index":31,"time_elapsed":522336,"internal_node_id":"0.0-10.0-3.3","validation_points":[[85,85],[50,50],[62.5,37.5],[15,15],[25,25],[75,25],[75,75],[25,75],[62.5,62.5],[37.5,62.5],[15,85],[85,15],[37.5,37.5]],"user_agent":"Mozilla/5.0 (Macintosh; Intel Mac OS X 10_15_2) AppleWebKit/537.36 (KHTML, like Gecko) Chrome/89.0.4389.82 Safari/537.36","screen_width_px":1366,"screen_height_px":768},{"rt":4371.3599999973085,"stimulus":"\n      <p>Round complete.</p>\n      <p>You can move a little bit, but please try to return you head to the same general location before continuing.</p>\n    ","response":0,"trial_type":"html-button-response","trial_index":32,"time_elapsed":526710,"internal_node_id":"0.0-10.0-4.3","user_agent":"Mozilla/5.0 (Macintosh; Intel Mac OS X 10_15_2) AppleWebKit/537.36 (KHTML, like Gecko) Chrome/89.0.4389.82 Safari/537.36","screen_width_px":1366,"screen_height_px":768},{"trial_type":"webgazer-init-camera","trial_index":33,"time_elapsed":558643,"internal_node_id":"0.0-10.0-5.3","user_agent":"Mozilla/5.0 (Macintosh; Intel Mac OS X 10_15_2) AppleWebKit/537.36 (KHTML, like Gecko) Chrome/89.0.4389.82 Safari/537.36","screen_width_px":1366,"screen_height_px":768},{"rt":1304.770000002347,"stimulus":"\n      <p>Calibration phase next.</p>\n      <p>Click on the dots.</p>\n    ","response":0,"trial_type":"html-button-response","trial_index":34,"time_elapsed":559951,"internal_node_id":"0.0-10.0-0.4","user_agent":"Mozilla/5.0 (Macintosh; Intel Mac OS X 10_15_2) AppleWebKit/537.36 (KHTML, like Gecko) Chrome/89.0.4389.82 Safari/537.36","screen_width_px":1366,"screen_height_px":768},{"trial_type":"webgazer-calibrate","trial_index":35,"time_elapsed":619118,"internal_node_id":"0.0-10.0-1.4","user_agent":"Mozilla/5.0 (Macintosh; Intel Mac OS X 10_15_2) AppleWebKit/537.36 (KHTML, like Gecko) Chrome/89.0.4389.82 Safari/537.36","screen_width_px":1366,"screen_height_px":768},{"rt":936.9750000042841,"stimulus":"\n      <p>Validation phase next.</p>\n      <p>Look at the dots.</p>\n    ","response":0,"trial_type":"html-button-response","trial_index":36,"time_elapsed":620057,"internal_node_id":"0.0-10.0-2.4","user_agent":"Mozilla/5.0 (Macintosh; Intel Mac OS X 10_15_2) AppleWebKit/537.36 (KHTML, like Gecko) Chrome/89.0.4389.82 Safari/537.36","screen_width_px":1366,"screen_height_px":768},{"raw_gaze":[[{"dx":-170.75,"dy":114,"t":1677},{"dx":-77.75,"dy":76,"t":2798},{"dx":0.25,"dy":143,"t":3908}],[{"dx":206,"dy":81,"t":5028},{"dx":239,"dy":53,"t":6141},{"dx":210,"dy":69,"t":7249}],[{"dx":-142.5,"dy":250,"t":8386},{"dx":-84.5,"dy":193,"t":9496},{"dx":-10.5,"dy":157,"t":10621}],[{"dx":536.75,"dy":37,"t":11732},{"dx":308.75,"dy":47,"t":12842},{"dx":101.75,"dy":66,"t":13964}],[{"dx":341.109375,"dy":206.8125,"t":15074},{"dx":159.109375,"dy":200.8125,"t":16213},{"dx":42.109375,"dy":226.8125,"t":17322}],[{"dx":-837.5,"dy":-224,"t":18433},{"dx":-516.5,"dy":-90,"t":19553},{"dx":-279.5,"dy":3,"t":20666}],[{"dx":688.109375,"dy":-19.796875,"t":21777},{"dx":594.109375,"dy":68.203125,"t":22908},{"dx":454.109375,"dy":117.203125,"t":24024}],[{"dx":-242.75,"dy":322,"t":25146},{"dx":-119.75,"dy":282,"t":26252},{"dx":-18.75,"dy":206,"t":27364}],[{"dx":565.5,"dy":437,"t":28488},{"dx":295.5,"dy":299,"t":29638},{"dx":92.5,"dy":186,"t":30759}],[{"dx":-175.25,"dy":-165,"t":31868},{"dx":-137.25,"dy":-123,"t":32974},{"dx":-78.25,"dy":-159,"t":34109}],[{"dx":100.5,"dy":-163,"t":35217},{"dx":189.5,"dy":-25,"t":36322},{"dx":135.5,"dy":28,"t":37446}],[{"dx":-662.09375,"dy":525.8125,"t":38560},{"dx":-278.09375,"dy":338.8125,"t":39702},{"dx":-35.09375,"dy":190.8125,"t":40813}],[{"dx":145.90625,"dy":-424.796875,"t":41944},{"dx":128.90625,"dy":-260.796875,"t":43056}]],"percent_in_roi":[66.66666666666666,0,0,33.33333333333333,0,0,0,0,0,0,33.33333333333333,0,0],"average_offset":[{"x":-82.75,"y":111,"r":88.05112151472007},{"x":218.33333333333334,"y":67.66666666666667,"r":18.162843634433706},{"x":-79.16666666666667,"y":200,"r":80.69145624606803},{"x":315.75,"y":50,"r":214.59729728027799},{"x":180.77604166666666,"y":211.47916666666666,"r":139.511847366292},{"x":-544.5,"y":-103.66666666666667,"r":285.66199918396177},{"x":578.7760416666666,"y":55.203125,"r":132.58498322878722},{"x":-127.08333333333333,"y":270,"r":125.82571720880874},{"x":317.8333333333333,"y":307.3333333333333,"r":255.92359971071224},{"x":-130.25,"y":-149,"r":47.75981574503821},{"x":141.83333333333334,"y":-53.333333333333336,"r":81.5795453666066},{"x":-325.09375,"y":351.8125,"r":331.6941362158819},{"x":137.40625,"y":-342.796875,"r":123.65905749276921}],"samples_per_sec":"0.89","clicks":25,"pattern":"cond","trial_type":"webgazer-validate","trial_index":37,"time_elapsed":664676,"internal_node_id":"0.0-10.0-3.4","validation_points":[[62.5,37.5],[50,50],[75,25],[37.5,37.5],[15,15],[75,75],[15,85],[62.5,62.5],[25,25],[37.5,62.5],[25,75],[85,15],[85,85]],"user_agent":"Mozilla/5.0 (Macintosh; Intel Mac OS X 10_15_2) AppleWebKit/537.36 (KHTML, like Gecko) Chrome/89.0.4389.82 Safari/537.36","screen_width_px":1366,"screen_height_px":768},{"rt":7546.395000004908,"stimulus":"\n      <p>Round complete.</p>\n      <p>You can move a little bit, but please try to return you head to the same general location before continuing.</p>\n    ","response":0,"trial_type":"html-button-response","trial_index":38,"time_elapsed":672226,"internal_node_id":"0.0-10.0-4.4","user_agent":"Mozilla/5.0 (Macintosh; Intel Mac OS X 10_15_2) AppleWebKit/537.36 (KHTML, like Gecko) Chrome/89.0.4389.82 Safari/537.36","screen_width_px":1366,"screen_height_px":768},{"trial_type":"webgazer-init-camera","trial_index":39,"time_elapsed":678197,"internal_node_id":"0.0-10.0-5.4","user_agent":"Mozilla/5.0 (Macintosh; Intel Mac OS X 10_15_2) AppleWebKit/537.36 (KHTML, like Gecko) Chrome/89.0.4389.82 Safari/537.36","screen_width_px":1366,"screen_height_px":768},{"rt":890.7799999942072,"stimulus":"\n      <p>Calibration phase next.</p>\n      <p>Click on the dots.</p>\n    ","response":0,"trial_type":"html-button-response","trial_index":40,"time_elapsed":679090,"internal_node_id":"0.0-10.0-0.5","user_agent":"Mozilla/5.0 (Macintosh; Intel Mac OS X 10_15_2) AppleWebKit/537.36 (KHTML, like Gecko) Chrome/89.0.4389.82 Safari/537.36","screen_width_px":1366,"screen_height_px":768},{"trial_type":"webgazer-calibrate","trial_index":41,"time_elapsed":715537,"internal_node_id":"0.0-10.0-1.5","user_agent":"Mozilla/5.0 (Macintosh; Intel Mac OS X 10_15_2) AppleWebKit/537.36 (KHTML, like Gecko) Chrome/89.0.4389.82 Safari/537.36","screen_width_px":1366,"screen_height_px":768},{"rt":1590.485000000568,"stimulus":"\n      <p>Validation phase next.</p>\n      <p>Look at the dots.</p>\n    ","response":0,"trial_type":"html-button-response","trial_index":42,"time_elapsed":717131,"internal_node_id":"0.0-10.0-2.5","user_agent":"Mozilla/5.0 (Macintosh; Intel Mac OS X 10_15_2) AppleWebKit/537.36 (KHTML, like Gecko) Chrome/89.0.4389.82 Safari/537.36","screen_width_px":1366,"screen_height_px":768},{"raw_gaze":[[{"dx":422.5,"dy":-225,"t":1690},{"dx":253.5,"dy":-160,"t":2800},{"dx":127.5,"dy":-85,"t":3920}],[{"dx":-504.75,"dy":230,"t":5029},{"dx":-290.75,"dy":162,"t":6150},{"dx":-157.75,"dy":122,"t":7281}],[{"dx":319.75,"dy":118,"t":8388},{"dx":273.75,"dy":26,"t":9513},{"dx":162.75,"dy":-87,"t":10635}],[{"dx":454.109375,"dy":31.8125,"t":11757},{"dx":330.109375,"dy":91.8125,"t":12866},{"dx":257.109375,"dy":225.8125,"t":13976}],[{"dx":-725.09375,"dy":-245.796875,"t":15091},{"dx":-515.09375,"dy":-170.796875,"t":16193},{"dx":-378.09375,"dy":-154.796875,"t":17306}],[{"dx":-236.5,"dy":-83,"t":18437},{"dx":-196.5,"dy":-91,"t":19546},{"dx":-162.5,"dy":-102,"t":20755}],[{"dx":-425.09375,"dy":422.8125,"t":21871},{"dx":-272.09375,"dy":287.8125,"t":22986},{"dx":-190.09375,"dy":186.8125,"t":24121}],[{"dx":193.25,"dy":-198,"t":25238},{"dx":165.25,"dy":-129,"t":26363},{"dx":130.25,"dy":-87,"t":27480}],[{"dx":609.5,"dy":236,"t":28597},{"dx":321.5,"dy":227,"t":29736},{"dx":122.5,"dy":179,"t":30853}],[{"dx":159.109375,"dy":-294.796875,"t":31979},{"dx":132.109375,"dy":-132.796875,"t":33101},{"dx":92.109375,"dy":-69.796875,"t":34212}],[{"dx":-706.5,"dy":414,"t":35334},{"dx":-416.5,"dy":237,"t":36447},{"dx":-217.5,"dy":121,"t":37561}],[{"dx":277,"dy":-119,"t":38701},{"dx":290,"dy":-129,"t":39814},{"dx":273,"dy":-142,"t":40935}],[{"dx":448.75,"dy":-231,"t":42049},{"dx":371.75,"dy":-252,"t":43167}]],"percent_in_roi":[0,0,0,0,0,0,0,0,0,33.33333333333333,0,0,0],"average_offset":[{"x":267.8333333333333,"y":-156.66666666666666,"r":157.5739685213124},{"x":-317.75,"y":171.33333333333334,"r":167.43290530172908},{"x":252.08333333333334,"y":19,"r":119.9157111381898},{"x":347.109375,"y":116.47916666666667,"r":136.44575641786903},{"x":-539.4270833333334,"y":-190.46354166666666,"r":165.22879759762088},{"x":-198.5,"y":-92,"r":37.36308338453881},{"x":-295.7604166666667,"y":299.1458333333333,"r":154.22134165614764},{"x":162.91666666666666,"y":-138,"r":60.5649330149973},{"x":351.1666666666667,"y":214,"r":231.32973099980998},{"x":127.77604166666667,"y":-165.796875,"r":102.41147939128265},{"x":-446.8333333333333,"y":257.3333333333333,"r":266.79684322636865},{"x":280,"y":-130,"r":11.40175425099138},{"x":410.25,"y":-241.5,"r":59.859209817704745}],"samples_per_sec":"0.89","clicks":15,"pattern":"spread","trial_type":"webgazer-validate","trial_index":43,"time_elapsed":761870,"internal_node_id":"0.0-10.0-3.5","validation_points":[[25,75],[62.5,37.5],[37.5,37.5],[15,15],[85,85],[75,75],[85,15],[62.5,62.5],[25,25],[15,85],[75,25],[50,50],[37.5,62.5]],"user_agent":"Mozilla/5.0 (Macintosh; Intel Mac OS X 10_15_2) AppleWebKit/537.36 (KHTML, like Gecko) Chrome/89.0.4389.82 Safari/537.36","screen_width_px":1366,"screen_height_px":768},{"rt":3731.5650000018068,"stimulus":"\n      <p>Round complete.</p>\n      <p>You can move a little bit, but please try to return you head to the same general location before continuing.</p>\n    ","response":0,"trial_type":"html-button-response","trial_index":44,"time_elapsed":765604,"internal_node_id":"0.0-10.0-4.5","user_agent":"Mozilla/5.0 (Macintosh; Intel Mac OS X 10_15_2) AppleWebKit/537.36 (KHTML, like Gecko) Chrome/89.0.4389.82 Safari/537.36","screen_width_px":1366,"screen_height_px":768},{"trial_type":"webgazer-init-camera","trial_index":45,"time_elapsed":769546,"internal_node_id":"0.0-10.0-5.5","user_agent":"Mozilla/5.0 (Macintosh; Intel Mac OS X 10_15_2) AppleWebKit/537.36 (KHTML, like Gecko) Chrome/89.0.4389.82 Safari/537.36","screen_width_px":1366,"screen_height_px":768},{"rt":944.5150000028079,"stimulus":"\n      <p>Calibration phase next.</p>\n      <p>Click on the dots.</p>\n    ","response":0,"trial_type":"html-button-response","trial_index":46,"time_elapsed":770492,"internal_node_id":"0.0-10.0-0.6","user_agent":"Mozilla/5.0 (Macintosh; Intel Mac OS X 10_15_2) AppleWebKit/537.36 (KHTML, like Gecko) Chrome/89.0.4389.82 Safari/537.36","screen_width_px":1366,"screen_height_px":768},{"trial_type":"webgazer-calibrate","trial_index":47,"time_elapsed":831243,"internal_node_id":"0.0-10.0-1.6","user_agent":"Mozilla/5.0 (Macintosh; Intel Mac OS X 10_15_2) AppleWebKit/537.36 (KHTML, like Gecko) Chrome/89.0.4389.82 Safari/537.36","screen_width_px":1366,"screen_height_px":768},{"rt":1104.994999994291,"stimulus":"\n      <p>Validation phase next.</p>\n      <p>Look at the dots.</p>\n    ","response":0,"trial_type":"html-button-response","trial_index":48,"time_elapsed":832350,"internal_node_id":"0.0-10.0-2.6","user_agent":"Mozilla/5.0 (Macintosh; Intel Mac OS X 10_15_2) AppleWebKit/537.36 (KHTML, like Gecko) Chrome/89.0.4389.82 Safari/537.36","screen_width_px":1366,"screen_height_px":768},{"raw_gaze":[[{"dx":2,"dy":94,"t":1696},{"dx":28,"dy":132,"t":2836},{"dx":74,"dy":91,"t":3949}],[{"dx":-415.09375,"dy":350.8125,"t":5080},{"dx":-188.09375,"dy":199.8125,"t":6203},{"dx":-45.09375,"dy":113.8125,"t":7320}],[{"dx":956.109375,"dy":68.8125,"t":8441},{"dx":505.109375,"dy":56.8125,"t":9555},{"dx":236.109375,"dy":8.8125,"t":10690}],[{"dx":-341.25,"dy":-364,"t":11806},{"dx":-190.25,"dy":-225,"t":12921},{"dx":-13.25,"dy":-149,"t":14051}],[{"dx":-450.5,"dy":-183,"t":15187},{"dx":-297.5,"dy":-84,"t":16311},{"dx":-196.5,"dy":53,"t":17441}],[{"dx":-132.5,"dy":494,"t":18644},{"dx":35.5,"dy":345,"t":19791},{"dx":99.5,"dy":244,"t":20912}],[{"dx":971.109375,"dy":-338.796875,"t":22057},{"dx":526.109375,"dy":-145.796875,"t":23168},{"dx":199.109375,"dy":1.203125,"t":24281}],[{"dx":-329.25,"dy":439,"t":25440},{"dx":-258.25,"dy":282,"t":26558},{"dx":-154.25,"dy":177,"t":27684}],[{"dx":-408.75,"dy":69,"t":28829},{"dx":-252.75,"dy":9,"t":29943},{"dx":-155.75,"dy":-22,"t":31066}],[{"dx":450.5,"dy":-359,"t":32178},{"dx":202.5,"dy":-200,"t":33290},{"dx":78.5,"dy":-131,"t":34416}],[{"dx":2.5,"dy":296,"t":35530},{"dx":-77.5,"dy":152,"t":36660},{"dx":-83.5,"dy":18,"t":37771}],[{"dx":-970.09375,"dy":-507.796875,"t":38888},{"dx":-589.09375,"dy":-303.796875,"t":40029},{"dx":-306.09375,"dy":-152.796875,"t":41160}],[{"dx":187.25,"dy":123,"t":42273},{"dx":186.25,"dy":156,"t":43398}]],"percent_in_roi":[100,33.33333333333333,0,33.33333333333333,0,0,0,0,0,0,33.33333333333333,0,0],"average_offset":[{"x":34.666666666666664,"y":105.66666666666667,"r":34.687493743743175},{"x":-216.09375,"y":221.47916666666666,"r":202.0720443582217},{"x":565.7760416666666,"y":44.8125,"r":331.6264632249831},{"x":-181.58333333333334,"y":-246,"r":194.28101068069188},{"x":-314.8333333333333,"y":-71.33333333333333,"r":171.64368778243943},{"x":0.8333333333333334,"y":361,"r":153.0493747491675},{"x":565.4427083333334,"y":-161.13020833333334,"r":400.68968319913387},{"x":-247.25,"y":299.3333333333333,"r":153.66992042831427},{"x":-272.4166666666667,"y":18.666666666666668,"r":123.55115899451891},{"x":243.83333333333334,"y":-230,"r":192.7073198171546},{"x":-52.833333333333336,"y":155.33333333333334,"r":140.71563128838562},{"x":-621.7604166666666,"y":-321.4635416666667,"r":357.9020660584245},{"x":186.75,"y":139.5,"r":24.761361028828766}],"samples_per_sec":"0.89","clicks":25,"pattern":"spread","trial_type":"webgazer-validate","trial_index":49,"time_elapsed":877318,"internal_node_id":"0.0-10.0-3.6","validation_points":[[50,50],[85,15],[15,15],[37.5,62.5],[75,75],[75,25],[15,85],[37.5,37.5],[62.5,37.5],[25,75],[25,25],[85,85],[62.5,62.5]],"user_agent":"Mozilla/5.0 (Macintosh; Intel Mac OS X 10_15_2) AppleWebKit/537.36 (KHTML, like Gecko) Chrome/89.0.4389.82 Safari/537.36","screen_width_px":1366,"screen_height_px":768},{"rt":3614.430000001448,"stimulus":"\n      <p>Round complete.</p>\n      <p>You can move a little bit, but please try to return you head to the same general location before continuing.</p>\n    ","response":0,"trial_type":"html-button-response","trial_index":50,"time_elapsed":880935,"internal_node_id":"0.0-10.0-4.6","user_agent":"Mozilla/5.0 (Macintosh; Intel Mac OS X 10_15_2) AppleWebKit/537.36 (KHTML, like Gecko) Chrome/89.0.4389.82 Safari/537.36","screen_width_px":1366,"screen_height_px":768},{"trial_type":"webgazer-init-camera","trial_index":51,"time_elapsed":904651,"internal_node_id":"0.0-10.0-5.6","user_agent":"Mozilla/5.0 (Macintosh; Intel Mac OS X 10_15_2) AppleWebKit/537.36 (KHTML, like Gecko) Chrome/89.0.4389.82 Safari/537.36","screen_width_px":1366,"screen_height_px":768},{"rt":3291.1249999961583,"stimulus":"<p>Almost done!</p>\n      <p>Did you wear glasses while completing the experiment?</p>","response":1,"question":"glasses","trial_type":"html-button-response","trial_index":52,"time_elapsed":907944,"internal_node_id":"0.0-11.0","user_agent":"Mozilla/5.0 (Macintosh; Intel Mac OS X 10_15_2) AppleWebKit/537.36 (KHTML, like Gecko) Chrome/89.0.4389.82 Safari/537.36","screen_width_px":1366,"screen_height_px":768},{"trial_type":"call-function","trial_index":53,"time_elapsed":907946,"internal_node_id":"0.0-12.0","user_agent":"Mozilla/5.0 (Macintosh; Intel Mac OS X 10_15_2) AppleWebKit/537.36 (KHTML, like Gecko) Chrome/89.0.4389.82 Safari/537.36","screen_width_px":1366,"screen_height_px":768}]