[{"rt":25719.619999999966,"stimulus":"\n      <p>You can elect whether to include your data in our research dataset.</p>\n    ","response":0,"question":"consent","trial_type":"html-button-response","trial_index":0,"time_elapsed":25721,"internal_node_id":"0.0-0.0","user_agent":"Mozilla/5.0 (Windows NT 10.0; Win64; x64) AppleWebKit/537.36 (KHTML, like Gecko) Chrome/88.0.4324.190 Safari/537.36","screen_width_px":1280,"screen_height_px":720},{"rt":3181.2899999999863,"stimulus":"\n      <p>This experiment uses your camera for eye tracking.</p>\n      <p>No video is saved from this experiment. The only data recorded are predictions about where you are looking.</p>\n      <p>Before we begin, there are a few things to do that can improve the accuracy of the eye tracking.</p>\n    ","response":0,"trial_type":"html-button-response","trial_index":1,"time_elapsed":28904,"internal_node_id":"0.0-1.0","user_agent":"Mozilla/5.0 (Windows NT 10.0; Win64; x64) AppleWebKit/537.36 (KHTML, like Gecko) Chrome/88.0.4324.190 Safari/537.36","screen_width_px":1280,"screen_height_px":720},{"rt":860.0900000000183,"stimulus":"\n      <p>If you wear glasses and can complete the task without them, please remove your glasses.</p>\n    ","response":0,"trial_type":"html-button-response","trial_index":2,"time_elapsed":29765,"internal_node_id":"0.0-2.0","user_agent":"Mozilla/5.0 (Windows NT 10.0; Win64; x64) AppleWebKit/537.36 (KHTML, like Gecko) Chrome/88.0.4324.190 Safari/537.36","screen_width_px":1280,"screen_height_px":720},{"rt":641.1550000000279,"stimulus":"\n      <p>Please close additional browser tabs and apps running in the background.<br>The eye tracker works best when there are fewer things running at the same time.</p>\n    ","response":0,"trial_type":"html-button-response","trial_index":3,"time_elapsed":30408,"internal_node_id":"0.0-3.0","user_agent":"Mozilla/5.0 (Windows NT 10.0; Win64; x64) AppleWebKit/537.36 (KHTML, like Gecko) Chrome/88.0.4324.190 Safari/537.36","screen_width_px":1280,"screen_height_px":720},{"rt":9011.325000000055,"stimulus":"\n      <p>Try to avoid bright lights behind you.<br>The eye tracker works best if your face is well lit from the front.<br>If you can, adjust the lighting in your room.</p>\n    ","response":0,"trial_type":"html-button-response","trial_index":4,"time_elapsed":39420,"internal_node_id":"0.0-4.0","user_agent":"Mozilla/5.0 (Windows NT 10.0; Win64; x64) AppleWebKit/537.36 (KHTML, like Gecko) Chrome/88.0.4324.190 Safari/537.36","screen_width_px":1280,"screen_height_px":720},{"rt":3129.5400000000227,"stimulus":"\n      <p>In order to participate you must allow the experiment to use your camera.</p>\n      <p>You will be prompted to do this on the next screen.</p>\n    ","response":0,"trial_type":"html-button-response","trial_index":5,"time_elapsed":42551,"internal_node_id":"0.0-5.0","user_agent":"Mozilla/5.0 (Windows NT 10.0; Win64; x64) AppleWebKit/537.36 (KHTML, like Gecko) Chrome/88.0.4324.190 Safari/537.36","screen_width_px":1280,"screen_height_px":720},{"trial_type":"webgazer-init-camera","trial_index":6,"time_elapsed":66842,"internal_node_id":"0.0-6.0","user_agent":"Mozilla/5.0 (Windows NT 10.0; Win64; x64) AppleWebKit/537.36 (KHTML, like Gecko) Chrome/88.0.4324.190 Safari/537.36","screen_width_px":1280,"screen_height_px":720},{"rt":2817.9949999999953,"stimulus":"\n      <p>Now you'll complete a series of calibrations and validations.</p>\n      <p>The calibration will be reset after each round, so it is OK to move a little bit<br>in between the end of a validation and the start of the next calibration.</p>\n      <p>Please keep your head still during each round.</p>\n    ","response":0,"trial_type":"html-button-response","trial_index":7,"time_elapsed":69661,"internal_node_id":"0.0-7.0","user_agent":"Mozilla/5.0 (Windows NT 10.0; Win64; x64) AppleWebKit/537.36 (KHTML, like Gecko) Chrome/88.0.4324.190 Safari/537.36","screen_width_px":1280,"screen_height_px":720},{"success":true,"trial_type":"fullscreen","trial_index":8,"time_elapsed":72767,"internal_node_id":"0.0-8.0","user_agent":"Mozilla/5.0 (Windows NT 10.0; Win64; x64) AppleWebKit/537.36 (KHTML, like Gecko) Chrome/88.0.4324.190 Safari/537.36","screen_width_px":1280,"screen_height_px":720},{"rt":4496.235000000073,"stimulus":"\n      <p>During the calibration phase, please look at each dot and click on it.</p>\n      <p>During the validation phase, just look at each dot while it is on the screen.</p>\n    ","response":0,"trial_type":"html-button-response","trial_index":9,"time_elapsed":77264,"internal_node_id":"0.0-9.0","user_agent":"Mozilla/5.0 (Windows NT 10.0; Win64; x64) AppleWebKit/537.36 (KHTML, like Gecko) Chrome/88.0.4324.190 Safari/537.36","screen_width_px":1280,"screen_height_px":720},{"rt":1050.640000000043,"stimulus":"\n      <p>Calibration phase next.</p>\n      <p>Click on the dots.</p>\n    ","response":0,"trial_type":"html-button-response","trial_index":10,"time_elapsed":78316,"internal_node_id":"0.0-10.0-0.0","user_agent":"Mozilla/5.0 (Windows NT 10.0; Win64; x64) AppleWebKit/537.36 (KHTML, like Gecko) Chrome/88.0.4324.190 Safari/537.36","screen_width_px":1280,"screen_height_px":720},{"trial_type":"webgazer-calibrate","trial_index":11,"time_elapsed":99489,"internal_node_id":"0.0-10.0-1.0","user_agent":"Mozilla/5.0 (Windows NT 10.0; Win64; x64) AppleWebKit/537.36 (KHTML, like Gecko) Chrome/88.0.4324.190 Safari/537.36","screen_width_px":1280,"screen_height_px":720},{"rt":1393.670000000042,"stimulus":"\n      <p>Validation phase next.</p>\n      <p>Look at the dots.</p>\n    ","response":0,"trial_type":"html-button-response","trial_index":12,"time_elapsed":100884,"internal_node_id":"0.0-10.0-2.0","user_agent":"Mozilla/5.0 (Windows NT 10.0; Win64; x64) AppleWebKit/537.36 (KHTML, like Gecko) Chrome/88.0.4324.190 Safari/537.36","screen_width_px":1280,"screen_height_px":720},{"raw_gaze":[[{"dx":-6,"dy":-62,"t":1046},{"dx":-50,"dy":-77,"t":1107},{"dx":-35,"dy":-83,"t":1136},{"dx":-61,"dy":-96,"t":1176},{"dx":-77,"dy":-109,"t":1205},{"dx":-74,"dy":-108,"t":1244},{"dx":-70,"dy":-90,"t":1274},{"dx":-33,"dy":-78,"t":1314},{"dx":0,"dy":-83,"t":1346},{"dx":13,"dy":-74,"t":1390},{"dx":14,"dy":-60,"t":1419},{"dx":26,"dy":-32,"t":1465},{"dx":6,"dy":-15,"t":1497},{"dx":13,"dy":-24,"t":1537},{"dx":-7,"dy":-45,"t":1566},{"dx":-55,"dy":-85,"t":1608},{"dx":-72,"dy":-92,"t":1637},{"dx":-13,"dy":-61,"t":1677},{"dx":-5,"dy":-61,"t":1706},{"dx":8,"dy":-76,"t":1744},{"dx":-19,"dy":-80,"t":1772},{"dx":-3,"dy":-73,"t":1812},{"dx":-5,"dy":-75,"t":1842},{"dx":-4,"dy":-53,"t":1883},{"dx":18,"dy":-45,"t":1914},{"dx":-26,"dy":-51,"t":1952},{"dx":-65,"dy":-53,"t":1982},{"dx":-45,"dy":-46,"t":2020},{"dx":2,"dy":-37,"t":2049},{"dx":103,"dy":-35,"t":2090},{"dx":130,"dy":-34,"t":2122},{"dx":187,"dy":-32,"t":2161},{"dx":194,"dy":-31,"t":2191},{"dx":121,"dy":-53,"t":2232},{"dx":97,"dy":-53,"t":2261},{"dx":54,"dy":-57,"t":2301},{"dx":4,"dy":-65,"t":2329},{"dx":-53,"dy":-79,"t":2368},{"dx":-52,"dy":-73,"t":2398},{"dx":6,"dy":-81,"t":2436},{"dx":28,"dy":-72,"t":2465},{"dx":19,"dy":-64,"t":2505},{"dx":-25,"dy":-66,"t":2536},{"dx":-15,"dy":-61,"t":2576},{"dx":-9,"dy":-63,"t":2606},{"dx":-5,"dy":-67,"t":2646},{"dx":-12,"dy":-66,"t":2675},{"dx":-22,"dy":-79,"t":2716},{"dx":-32,"dy":-87,"t":2745},{"dx":4,"dy":-98,"t":2786},{"dx":-10,"dy":-116,"t":2816},{"dx":4,"dy":-90,"t":2857},{"dx":22,"dy":-94,"t":2886},{"dx":23,"dy":-88,"t":2925},{"dx":-16,"dy":-105,"t":2954},{"dx":-13,"dy":-117,"t":2994},{"dx":-31,"dy":-121,"t":3023},{"dx":-17,"dy":-107,"t":3065},{"dx":0,"dy":-104,"t":3078}],[{"dx":36,"dy":25,"t":4077},{"dx":84,"dy":26,"t":4138},{"dx":114,"dy":19,"t":4167},{"dx":97,"dy":18,"t":4205},{"dx":100,"dy":22,"t":4235},{"dx":109,"dy":31,"t":4276},{"dx":73,"dy":36,"t":4305},{"dx":58,"dy":30,"t":4349},{"dx":43,"dy":40,"t":4378},{"dx":21,"dy":52,"t":4419},{"dx":4,"dy":52,"t":4452},{"dx":10,"dy":48,"t":4493},{"dx":10,"dy":49,"t":4525},{"dx":49,"dy":36,"t":4566},{"dx":74,"dy":22,"t":4596},{"dx":99,"dy":21,"t":4635},{"dx":89,"dy":9,"t":4664},{"dx":66,"dy":7,"t":4708},{"dx":49,"dy":11,"t":4738},{"dx":-20,"dy":-6,"t":4778},{"dx":-32,"dy":-21,"t":4807},{"dx":-54,"dy":-29,"t":4845},{"dx":-51,"dy":-24,"t":4874},{"dx":-21,"dy":-12,"t":4914},{"dx":18,"dy":11,"t":4943},{"dx":40,"dy":8,"t":4985},{"dx":35,"dy":-2,"t":5015},{"dx":143,"dy":24,"t":5054},{"dx":181,"dy":44,"t":5083},{"dx":220,"dy":66,"t":5124},{"dx":256,"dy":76,"t":5154},{"dx":280,"dy":78,"t":5193},{"dx":312,"dy":77,"t":5222},{"dx":316,"dy":86,"t":5260},{"dx":338,"dy":89,"t":5291},{"dx":359,"dy":73,"t":5371},{"dx":344,"dy":67,"t":5398},{"dx":295,"dy":57,"t":5435},{"dx":236,"dy":56,"t":5464},{"dx":203,"dy":49,"t":5503},{"dx":205,"dy":42,"t":5536},{"dx":176,"dy":50,"t":5574},{"dx":159,"dy":47,"t":5603},{"dx":193,"dy":63,"t":5642},{"dx":229,"dy":58,"t":5672},{"dx":240,"dy":58,"t":5711},{"dx":234,"dy":58,"t":5740},{"dx":243,"dy":57,"t":5782},{"dx":266,"dy":51,"t":5811},{"dx":212,"dy":27,"t":5850},{"dx":209,"dy":42,"t":5882},{"dx":158,"dy":58,"t":5923},{"dx":166,"dy":66,"t":5952},{"dx":152,"dy":70,"t":5994},{"dx":154,"dy":69,"t":6027},{"dx":228,"dy":87,"t":6071},{"dx":253,"dy":93,"t":6084}],[{"dx":-255,"dy":28,"t":7099},{"dx":-299,"dy":35,"t":7128},{"dx":-366,"dy":28,"t":7168},{"dx":-361,"dy":28,"t":7202},{"dx":-321,"dy":9,"t":7242},{"dx":-310,"dy":-12,"t":7271},{"dx":-290,"dy":6,"t":7310},{"dx":-231,"dy":-3,"t":7339},{"dx":-242,"dy":19,"t":7376},{"dx":-238,"dy":36,"t":7404},{"dx":-235,"dy":68,"t":7442},{"dx":-223,"dy":95,"t":7469},{"dx":-167,"dy":84,"t":7510},{"dx":-148,"dy":66,"t":7542},{"dx":-150,"dy":65,"t":7582},{"dx":-205,"dy":56,"t":7611},{"dx":-234,"dy":15,"t":7651},{"dx":-244,"dy":-1,"t":7680},{"dx":-228,"dy":-20,"t":7720},{"dx":-226,"dy":-21,"t":7752},{"dx":-227,"dy":-36,"t":7791},{"dx":-227,"dy":-36,"t":7821},{"dx":-180,"dy":-17,"t":7860},{"dx":-158,"dy":0,"t":7889},{"dx":-113,"dy":39,"t":7929},{"dx":-161,"dy":31,"t":7958},{"dx":-153,"dy":64,"t":7997},{"dx":-160,"dy":93,"t":8026},{"dx":-223,"dy":47,"t":8065},{"dx":-202,"dy":36,"t":8094},{"dx":-178,"dy":40,"t":8133},{"dx":-176,"dy":55,"t":8162},{"dx":-164,"dy":50,"t":8202},{"dx":-158,"dy":52,"t":8231},{"dx":-103,"dy":46,"t":8272},{"dx":-60,"dy":35,"t":8301},{"dx":-84,"dy":22,"t":8342},{"dx":-80,"dy":21,"t":8373},{"dx":-97,"dy":11,"t":8412},{"dx":-118,"dy":5,"t":8440},{"dx":-138,"dy":-6,"t":8478},{"dx":-131,"dy":5,"t":8507},{"dx":-130,"dy":12,"t":8546},{"dx":-121,"dy":-1,"t":8575},{"dx":-133,"dy":0,"t":8613},{"dx":-157,"dy":34,"t":8642},{"dx":-215,"dy":31,"t":8681},{"dx":-247,"dy":43,"t":8711},{"dx":-274,"dy":11,"t":8749},{"dx":-277,"dy":-10,"t":8780},{"dx":-234,"dy":-28,"t":8818},{"dx":-196,"dy":-28,"t":8848},{"dx":-177,"dy":-10,"t":8887},{"dx":-168,"dy":3,"t":8916},{"dx":-181,"dy":7,"t":8956},{"dx":-197,"dy":1,"t":8985},{"dx":-196,"dy":-21,"t":9026},{"dx":-174,"dy":-38,"t":9056},{"dx":-162,"dy":-7,"t":9102},{"dx":-143,"dy":12,"t":9114}],[{"dx":-92,"dy":-88,"t":10143},{"dx":-56,"dy":-92,"t":10171},{"dx":-84,"dy":-58,"t":10226},{"dx":-91,"dy":-40,"t":10257},{"dx":-95,"dy":-24,"t":10296},{"dx":-104,"dy":-48,"t":10322},{"dx":-131,"dy":-101,"t":10365},{"dx":-132,"dy":-108,"t":10395},{"dx":-126,"dy":-100,"t":10441},{"dx":-131,"dy":-111,"t":10473},{"dx":-104,"dy":-119,"t":10516},{"dx":-126,"dy":-115,"t":10544},{"dx":-116,"dy":-114,"t":10583},{"dx":-103,"dy":-104,"t":10611},{"dx":-119,"dy":-128,"t":10657},{"dx":-86,"dy":-131,"t":10696},{"dx":-61,"dy":-129,"t":10781},{"dx":-45,"dy":-117,"t":10809},{"dx":-73,"dy":-142,"t":10848},{"dx":-79,"dy":-140,"t":10883},{"dx":-202,"dy":-152,"t":10945},{"dx":-276,"dy":-154,"t":10976},{"dx":-279,"dy":-113,"t":11024},{"dx":-241,"dy":-103,"t":11053},{"dx":-127,"dy":-77,"t":11091},{"dx":-108,"dy":-74,"t":11118},{"dx":-116,"dy":-122,"t":11157},{"dx":-123,"dy":-147,"t":11189},{"dx":-173,"dy":-165,"t":11245},{"dx":-170,"dy":-167,"t":11273},{"dx":-170,"dy":-153,"t":11315},{"dx":-164,"dy":-145,"t":11345},{"dx":-126,"dy":-139,"t":11387},{"dx":-98,"dy":-137,"t":11416},{"dx":-148,"dy":-128,"t":11458},{"dx":-179,"dy":-106,"t":11490},{"dx":-172,"dy":-71,"t":11534},{"dx":-147,"dy":-69,"t":11578},{"dx":-72,"dy":-79,"t":11619},{"dx":-87,"dy":-108,"t":11649},{"dx":-113,"dy":-145,"t":11689},{"dx":-159,"dy":-147,"t":11717},{"dx":-118,"dy":-121,"t":11757},{"dx":-73,"dy":-107,"t":11787},{"dx":-76,"dy":-107,"t":11827},{"dx":-93,"dy":-98,"t":11857},{"dx":-133,"dy":-48,"t":11895},{"dx":-118,"dy":-79,"t":11925},{"dx":-126,"dy":-29,"t":11965},{"dx":-119,"dy":-19,"t":11994},{"dx":-106,"dy":-23,"t":12032},{"dx":-109,"dy":-23,"t":12062},{"dx":-120,"dy":-80,"t":12106},{"dx":-119,"dy":-88,"t":12122}],[{"dx":-218,"dy":-11,"t":13106},{"dx":-212,"dy":-14,"t":13167},{"dx":-195,"dy":-40,"t":13197},{"dx":-216,"dy":-66,"t":13236},{"dx":-207,"dy":-82,"t":13266},{"dx":-180,"dy":-64,"t":13304},{"dx":-132,"dy":-50,"t":13333},{"dx":-110,"dy":-67,"t":13380},{"dx":-123,"dy":-73,"t":13412},{"dx":-87,"dy":-69,"t":13452},{"dx":-70,"dy":-65,"t":13481},{"dx":-75,"dy":-66,"t":13524},{"dx":-70,"dy":-77,"t":13556},{"dx":-79,"dy":-78,"t":13601},{"dx":-94,"dy":-73,"t":13633},{"dx":-130,"dy":-79,"t":13670},{"dx":-141,"dy":-79,"t":13698},{"dx":-150,"dy":-98,"t":13740},{"dx":-152,"dy":-109,"t":13770},{"dx":-135,"dy":-134,"t":13817},{"dx":-123,"dy":-148,"t":13847},{"dx":-75,"dy":-148,"t":13885},{"dx":-56,"dy":-142,"t":13923},{"dx":-49,"dy":-125,"t":13971},{"dx":-60,"dy":-111,"t":14004},{"dx":-78,"dy":-113,"t":14048},{"dx":-106,"dy":-130,"t":14075},{"dx":-170,"dy":-139,"t":14114},{"dx":-187,"dy":-133,"t":14142},{"dx":-168,"dy":-123,"t":14183},{"dx":-154,"dy":-105,"t":14212},{"dx":-173,"dy":-113,"t":14253},{"dx":-174,"dy":-122,"t":14281},{"dx":-150,"dy":-155,"t":14319},{"dx":-156,"dy":-166,"t":14349},{"dx":-199,"dy":-140,"t":14389},{"dx":-201,"dy":-135,"t":14419},{"dx":-204,"dy":-128,"t":14459},{"dx":-232,"dy":-125,"t":14489},{"dx":-225,"dy":-157,"t":14528},{"dx":-214,"dy":-138,"t":14557},{"dx":-146,"dy":-110,"t":14602},{"dx":-131,"dy":-93,"t":14632},{"dx":-56,"dy":-74,"t":14671},{"dx":-19,"dy":-77,"t":14703},{"dx":30,"dy":-47,"t":14741},{"dx":12,"dy":-45,"t":14771},{"dx":-39,"dy":-81,"t":14811},{"dx":-72,"dy":-89,"t":14845},{"dx":-109,"dy":-100,"t":14893},{"dx":-117,"dy":-102,"t":14923},{"dx":-111,"dy":-87,"t":14961},{"dx":-87,"dy":-84,"t":14993},{"dx":-59,"dy":-61,"t":15036},{"dx":-75,"dy":-60,"t":15070},{"dx":-47,"dy":-70,"t":15115},{"dx":0,"dy":-68,"t":15128}],[{"dx":-265,"dy":-197,"t":16121},{"dx":-284,"dy":-243,"t":16185},{"dx":-299,"dy":-259,"t":16220},{"dx":-339,"dy":-249,"t":16258},{"dx":-331,"dy":-233,"t":16286},{"dx":-324,"dy":-204,"t":16325},{"dx":-325,"dy":-215,"t":16354},{"dx":-222,"dy":-213,"t":16404},{"dx":-153,"dy":-213,"t":16457},{"dx":-158,"dy":-192,"t":16495},{"dx":-195,"dy":-183,"t":16523},{"dx":-213,"dy":-155,"t":16561},{"dx":-214,"dy":-142,"t":16588},{"dx":-243,"dy":-127,"t":16628},{"dx":-254,"dy":-123,"t":16659},{"dx":-210,"dy":-118,"t":16698},{"dx":-190,"dy":-149,"t":16728},{"dx":-212,"dy":-178,"t":16768},{"dx":-228,"dy":-178,"t":16798},{"dx":-261,"dy":-215,"t":16837},{"dx":-291,"dy":-233,"t":16866},{"dx":-237,"dy":-226,"t":16906},{"dx":-205,"dy":-220,"t":16935},{"dx":-209,"dy":-204,"t":16973},{"dx":-222,"dy":-209,"t":17004},{"dx":-277,"dy":-222,"t":17044},{"dx":-259,"dy":-210,"t":17073},{"dx":-209,"dy":-201,"t":17115},{"dx":-199,"dy":-222,"t":17146},{"dx":-190,"dy":-246,"t":17184},{"dx":-186,"dy":-248,"t":17214},{"dx":-232,"dy":-236,"t":17257},{"dx":-246,"dy":-246,"t":17287},{"dx":-271,"dy":-246,"t":17326},{"dx":-265,"dy":-235,"t":17354},{"dx":-253,"dy":-224,"t":17393},{"dx":-250,"dy":-226,"t":17423},{"dx":-223,"dy":-227,"t":17463},{"dx":-218,"dy":-213,"t":17496},{"dx":-241,"dy":-228,"t":17537},{"dx":-266,"dy":-243,"t":17567},{"dx":-250,"dy":-240,"t":17611},{"dx":-230,"dy":-235,"t":17641},{"dx":-186,"dy":-234,"t":17679},{"dx":-149,"dy":-233,"t":17709},{"dx":-154,"dy":-223,"t":17747},{"dx":-176,"dy":-227,"t":17778},{"dx":-198,"dy":-219,"t":17819},{"dx":-243,"dy":-200,"t":17848},{"dx":-258,"dy":-180,"t":17887},{"dx":-238,"dy":-175,"t":17916},{"dx":-234,"dy":-169,"t":17955},{"dx":-182,"dy":-188,"t":17984},{"dx":-213,"dy":-221,"t":18024},{"dx":-157,"dy":-205,"t":18054},{"dx":-190,"dy":-227,"t":18094},{"dx":-202,"dy":-233,"t":18128},{"dx":-275,"dy":-246,"t":18155}],[{"dx":-144,"dy":-97,"t":19162},{"dx":-186,"dy":-113,"t":19191},{"dx":-214,"dy":-157,"t":19230},{"dx":-230,"dy":-157,"t":19260},{"dx":-217,"dy":-156,"t":19301},{"dx":-234,"dy":-159,"t":19331},{"dx":-157,"dy":-145,"t":19371},{"dx":-132,"dy":-157,"t":19401},{"dx":-87,"dy":-156,"t":19438},{"dx":-93,"dy":-154,"t":19468},{"dx":-137,"dy":-143,"t":19505},{"dx":-179,"dy":-141,"t":19535},{"dx":-250,"dy":-77,"t":19574},{"dx":-227,"dy":-55,"t":19604},{"dx":-219,"dy":-55,"t":19642},{"dx":-207,"dy":-42,"t":19672},{"dx":-188,"dy":-70,"t":19710},{"dx":-176,"dy":-84,"t":19738},{"dx":-135,"dy":-72,"t":19776},{"dx":-152,"dy":-64,"t":19805},{"dx":-178,"dy":-42,"t":19844},{"dx":-152,"dy":-30,"t":19873},{"dx":-102,"dy":-30,"t":19911},{"dx":-78,"dy":-39,"t":19940},{"dx":-142,"dy":-94,"t":19981},{"dx":-200,"dy":-135,"t":20011},{"dx":-197,"dy":-146,"t":20053},{"dx":-188,"dy":-169,"t":20082},{"dx":-157,"dy":-151,"t":20121},{"dx":-173,"dy":-155,"t":20150},{"dx":-238,"dy":-159,"t":20189},{"dx":-275,"dy":-169,"t":20216},{"dx":-314,"dy":-173,"t":20253},{"dx":-273,"dy":-179,"t":20284},{"dx":-226,"dy":-183,"t":20325},{"dx":-232,"dy":-170,"t":20356},{"dx":-258,"dy":-167,"t":20397},{"dx":-251,"dy":-167,"t":20426},{"dx":-243,"dy":-150,"t":20467},{"dx":-242,"dy":-134,"t":20497},{"dx":-212,"dy":-95,"t":20537},{"dx":-195,"dy":-68,"t":20569},{"dx":-206,"dy":-99,"t":20611},{"dx":-226,"dy":-130,"t":20641},{"dx":-166,"dy":-138,"t":20680},{"dx":-153,"dy":-150,"t":20709},{"dx":-103,"dy":-152,"t":20748},{"dx":-84,"dy":-136,"t":20777},{"dx":-64,"dy":-165,"t":20819},{"dx":-68,"dy":-177,"t":20851},{"dx":-111,"dy":-164,"t":20891},{"dx":-126,"dy":-171,"t":20920},{"dx":-140,"dy":-190,"t":20957},{"dx":-145,"dy":-202,"t":20989},{"dx":-200,"dy":-179,"t":21032},{"dx":-245,"dy":-187,"t":21062},{"dx":-269,"dy":-191,"t":21101},{"dx":-258,"dy":-187,"t":21139},{"dx":-275,"dy":-180,"t":21167}],[{"dx":-81,"dy":-121,"t":22157},{"dx":-86,"dy":-116,"t":22225},{"dx":-117,"dy":-121,"t":22254},{"dx":-145,"dy":-135,"t":22294},{"dx":-160,"dy":-137,"t":22324},{"dx":-129,"dy":-126,"t":22366},{"dx":-121,"dy":-124,"t":22395},{"dx":-99,"dy":-99,"t":22434},{"dx":-137,"dy":-81,"t":22464},{"dx":-133,"dy":-58,"t":22503},{"dx":-117,"dy":-56,"t":22532},{"dx":-100,"dy":-61,"t":22571},{"dx":-98,"dy":-67,"t":22601},{"dx":-117,"dy":-86,"t":22639},{"dx":-105,"dy":-79,"t":22667},{"dx":-131,"dy":-72,"t":22706},{"dx":-129,"dy":-79,"t":22735},{"dx":-97,"dy":-101,"t":22775},{"dx":-79,"dy":-109,"t":22805},{"dx":-69,"dy":-131,"t":22847},{"dx":-54,"dy":-137,"t":22876},{"dx":-37,"dy":-123,"t":22917},{"dx":-13,"dy":-120,"t":22947},{"dx":-35,"dy":-107,"t":22987},{"dx":-31,"dy":-95,"t":23017},{"dx":-57,"dy":-104,"t":23057},{"dx":-56,"dy":-96,"t":23087},{"dx":-77,"dy":-81,"t":23129},{"dx":-82,"dy":-71,"t":23159},{"dx":-36,"dy":-63,"t":23199},{"dx":-26,"dy":-59,"t":23229},{"dx":-30,"dy":-54,"t":23268},{"dx":-37,"dy":-61,"t":23298},{"dx":-100,"dy":-87,"t":23338},{"dx":-147,"dy":-105,"t":23368},{"dx":-161,"dy":-116,"t":23411},{"dx":-155,"dy":-112,"t":23440},{"dx":-160,"dy":-109,"t":23480},{"dx":-147,"dy":-111,"t":23510},{"dx":-123,"dy":-97,"t":23552},{"dx":-134,"dy":-101,"t":23581},{"dx":-104,"dy":-119,"t":23623},{"dx":-75,"dy":-131,"t":23653},{"dx":-57,"dy":-126,"t":23692},{"dx":-60,"dy":-114,"t":23721},{"dx":-38,"dy":-109,"t":23760},{"dx":-19,"dy":-116,"t":23790},{"dx":-60,"dy":-123,"t":23831},{"dx":-81,"dy":-119,"t":23860},{"dx":-105,"dy":-126,"t":23900},{"dx":-109,"dy":-129,"t":23929},{"dx":-115,"dy":-139,"t":23969},{"dx":-103,"dy":-135,"t":23999},{"dx":-51,"dy":-112,"t":24041},{"dx":-27,"dy":-107,"t":24071},{"dx":-2,"dy":-107,"t":24111},{"dx":0,"dy":-106,"t":24142},{"dx":-51,"dy":-109,"t":24171}],[{"dx":167,"dy":-135,"t":25150},{"dx":112,"dy":-133,"t":25212},{"dx":93,"dy":-137,"t":25242},{"dx":95,"dy":-113,"t":25283},{"dx":112,"dy":-89,"t":25314},{"dx":159,"dy":-73,"t":25354},{"dx":245,"dy":-100,"t":25384},{"dx":214,"dy":-127,"t":25423},{"dx":192,"dy":-137,"t":25452},{"dx":159,"dy":-163,"t":25493},{"dx":166,"dy":-161,"t":25523},{"dx":144,"dy":-172,"t":25563},{"dx":148,"dy":-161,"t":25594},{"dx":118,"dy":-143,"t":25635},{"dx":137,"dy":-146,"t":25665},{"dx":133,"dy":-187,"t":25706},{"dx":135,"dy":-178,"t":25736},{"dx":131,"dy":-196,"t":25777},{"dx":132,"dy":-201,"t":25807},{"dx":125,"dy":-199,"t":25847},{"dx":142,"dy":-209,"t":25878},{"dx":120,"dy":-193,"t":25919},{"dx":125,"dy":-201,"t":25949},{"dx":157,"dy":-209,"t":25988},{"dx":213,"dy":-235,"t":26023},{"dx":219,"dy":-214,"t":26066},{"dx":219,"dy":-229,"t":26097},{"dx":172,"dy":-204,"t":26140},{"dx":131,"dy":-184,"t":26170},{"dx":146,"dy":-198,"t":26212},{"dx":149,"dy":-208,"t":26242},{"dx":213,"dy":-179,"t":26282},{"dx":214,"dy":-159,"t":26313},{"dx":207,"dy":-167,"t":26354},{"dx":182,"dy":-156,"t":26385},{"dx":164,"dy":-189,"t":26426},{"dx":148,"dy":-191,"t":26456},{"dx":154,"dy":-258,"t":26495},{"dx":169,"dy":-286,"t":26525},{"dx":204,"dy":-281,"t":26566},{"dx":241,"dy":-266,"t":26596},{"dx":241,"dy":-231,"t":26636},{"dx":284,"dy":-228,"t":26666},{"dx":217,"dy":-206,"t":26709},{"dx":199,"dy":-184,"t":26739},{"dx":148,"dy":-183,"t":26780},{"dx":153,"dy":-197,"t":26810},{"dx":164,"dy":-205,"t":26850},{"dx":151,"dy":-194,"t":26881},{"dx":200,"dy":-187,"t":26921},{"dx":205,"dy":-210,"t":26950},{"dx":125,"dy":-189,"t":26990},{"dx":62,"dy":-189,"t":27019},{"dx":20,"dy":-193,"t":27058},{"dx":6,"dy":-181,"t":27090},{"dx":75,"dy":-214,"t":27130},{"dx":172,"dy":-249,"t":27170},{"dx":190,"dy":-253,"t":27224}],[{"dx":338,"dy":-157,"t":28181},{"dx":302,"dy":-187,"t":28245},{"dx":291,"dy":-205,"t":28274},{"dx":257,"dy":-214,"t":28314},{"dx":266,"dy":-218,"t":28344},{"dx":267,"dy":-214,"t":28382},{"dx":242,"dy":-209,"t":28411},{"dx":198,"dy":-225,"t":28450},{"dx":157,"dy":-204,"t":28479},{"dx":124,"dy":-177,"t":28522},{"dx":123,"dy":-182,"t":28551},{"dx":211,"dy":-245,"t":28591},{"dx":249,"dy":-272,"t":28621},{"dx":226,"dy":-285,"t":28660},{"dx":206,"dy":-274,"t":28689},{"dx":198,"dy":-259,"t":28731},{"dx":183,"dy":-242,"t":28759},{"dx":176,"dy":-256,"t":28800},{"dx":193,"dy":-293,"t":28830},{"dx":222,"dy":-228,"t":28869},{"dx":254,"dy":-188,"t":28897},{"dx":249,"dy":-164,"t":28939},{"dx":227,"dy":-159,"t":28969},{"dx":261,"dy":-189,"t":29006},{"dx":256,"dy":-204,"t":29036},{"dx":221,"dy":-219,"t":29076},{"dx":191,"dy":-202,"t":29106},{"dx":204,"dy":-216,"t":29148},{"dx":216,"dy":-201,"t":29177},{"dx":193,"dy":-181,"t":29217},{"dx":203,"dy":-188,"t":29248},{"dx":243,"dy":-172,"t":29289},{"dx":262,"dy":-164,"t":29321},{"dx":245,"dy":-180,"t":29361},{"dx":240,"dy":-167,"t":29389},{"dx":214,"dy":-185,"t":29429},{"dx":225,"dy":-190,"t":29459},{"dx":219,"dy":-232,"t":29499},{"dx":240,"dy":-259,"t":29530},{"dx":177,"dy":-234,"t":29569},{"dx":152,"dy":-222,"t":29603},{"dx":138,"dy":-195,"t":29653},{"dx":132,"dy":-180,"t":29682},{"dx":201,"dy":-174,"t":29720},{"dx":219,"dy":-171,"t":29748},{"dx":247,"dy":-200,"t":29789},{"dx":223,"dy":-195,"t":29823},{"dx":195,"dy":-192,"t":29863},{"dx":162,"dy":-188,"t":29892},{"dx":143,"dy":-185,"t":29932},{"dx":138,"dy":-181,"t":29960},{"dx":124,"dy":-188,"t":30001},{"dx":126,"dy":-190,"t":30031},{"dx":114,"dy":-189,"t":30070},{"dx":112,"dy":-178,"t":30099},{"dx":108,"dy":-175,"t":30140},{"dx":114,"dy":-182,"t":30171},{"dx":131,"dy":-160,"t":30198}],[{"dx":7,"dy":-181,"t":31181},{"dx":56,"dy":-188,"t":31243},{"dx":66,"dy":-185,"t":31272},{"dx":24,"dy":-194,"t":31313},{"dx":31,"dy":-199,"t":31342},{"dx":25,"dy":-182,"t":31381},{"dx":44,"dy":-173,"t":31410},{"dx":37,"dy":-177,"t":31451},{"dx":22,"dy":-178,"t":31480},{"dx":63,"dy":-204,"t":31517},{"dx":96,"dy":-211,"t":31545},{"dx":127,"dy":-213,"t":31584},{"dx":148,"dy":-224,"t":31613},{"dx":76,"dy":-155,"t":31654},{"dx":41,"dy":-128,"t":31685},{"dx":-7,"dy":-99,"t":31725},{"dx":-22,"dy":-96,"t":31753},{"dx":16,"dy":-125,"t":31792},{"dx":17,"dy":-144,"t":31820},{"dx":36,"dy":-169,"t":31860},{"dx":17,"dy":-176,"t":31888},{"dx":-8,"dy":-172,"t":31927},{"dx":-28,"dy":-174,"t":31955},{"dx":4,"dy":-164,"t":31996},{"dx":15,"dy":-158,"t":32025},{"dx":30,"dy":-141,"t":32066},{"dx":48,"dy":-140,"t":32094},{"dx":61,"dy":-138,"t":32133},{"dx":58,"dy":-144,"t":32162},{"dx":-9,"dy":-168,"t":32201},{"dx":-32,"dy":-181,"t":32230},{"dx":-48,"dy":-181,"t":32270},{"dx":-41,"dy":-179,"t":32297},{"dx":-54,"dy":-154,"t":32336},{"dx":-25,"dy":-130,"t":32365},{"dx":23,"dy":-133,"t":32404},{"dx":14,"dy":-140,"t":32433},{"dx":24,"dy":-161,"t":32474},{"dx":42,"dy":-175,"t":32503},{"dx":-14,"dy":-197,"t":32541},{"dx":-22,"dy":-203,"t":32569},{"dx":-61,"dy":-196,"t":32608},{"dx":-71,"dy":-179,"t":32635},{"dx":-83,"dy":-153,"t":32677},{"dx":-79,"dy":-145,"t":32708},{"dx":-53,"dy":-145,"t":32747},{"dx":-37,"dy":-148,"t":32778},{"dx":-46,"dy":-148,"t":32818},{"dx":-67,"dy":-144,"t":32850},{"dx":-53,"dy":-151,"t":32924},{"dx":-40,"dy":-146,"t":32990},{"dx":-42,"dy":-138,"t":33027},{"dx":-43,"dy":-142,"t":33057},{"dx":-67,"dy":-129,"t":33097},{"dx":-84,"dy":-120,"t":33128},{"dx":-80,"dy":-89,"t":33177},{"dx":-95,"dy":-69,"t":33206},{"dx":-35,"dy":-130,"t":33233}],[{"dx":-13,"dy":-265,"t":34252},{"dx":22,"dy":-297,"t":34281},{"dx":38,"dy":-307,"t":34320},{"dx":63,"dy":-319,"t":34348},{"dx":55,"dy":-311,"t":34389},{"dx":84,"dy":-328,"t":34419},{"dx":49,"dy":-306,"t":34463},{"dx":39,"dy":-307,"t":34494},{"dx":-48,"dy":-261,"t":34534},{"dx":-88,"dy":-229,"t":34563},{"dx":-16,"dy":-201,"t":34603},{"dx":-7,"dy":-191,"t":34632},{"dx":15,"dy":-165,"t":34671},{"dx":15,"dy":-156,"t":34700},{"dx":38,"dy":-163,"t":34740},{"dx":51,"dy":-203,"t":34771},{"dx":39,"dy":-253,"t":34815},{"dx":26,"dy":-291,"t":34847},{"dx":22,"dy":-275,"t":34887},{"dx":25,"dy":-258,"t":34915},{"dx":47,"dy":-238,"t":34953},{"dx":53,"dy":-245,"t":34981},{"dx":58,"dy":-256,"t":35018},{"dx":57,"dy":-268,"t":35047},{"dx":48,"dy":-278,"t":35084},{"dx":39,"dy":-278,"t":35112},{"dx":-6,"dy":-240,"t":35149},{"dx":-10,"dy":-214,"t":35177},{"dx":-14,"dy":-205,"t":35215},{"dx":14,"dy":-220,"t":35243},{"dx":-3,"dy":-249,"t":35282},{"dx":6,"dy":-256,"t":35314},{"dx":24,"dy":-267,"t":35352},{"dx":31,"dy":-269,"t":35381},{"dx":11,"dy":-239,"t":35420},{"dx":-12,"dy":-220,"t":35452},{"dx":-3,"dy":-176,"t":35490},{"dx":21,"dy":-152,"t":35520},{"dx":11,"dy":-56,"t":35558},{"dx":12,"dy":-32,"t":35587},{"dx":-13,"dy":-80,"t":35627},{"dx":-34,"dy":-120,"t":35656},{"dx":-15,"dy":-214,"t":35694},{"dx":-10,"dy":-253,"t":35723},{"dx":-54,"dy":-177,"t":35760},{"dx":-58,"dy":-158,"t":35790},{"dx":-43,"dy":-188,"t":35829},{"dx":-66,"dy":-186,"t":35858},{"dx":-99,"dy":-213,"t":35897},{"dx":-116,"dy":-223,"t":35927},{"dx":-66,"dy":-255,"t":35965},{"dx":-46,"dy":-256,"t":35993},{"dx":-12,"dy":-274,"t":36031},{"dx":-9,"dy":-282,"t":36062},{"dx":-42,"dy":-236,"t":36108},{"dx":-55,"dy":-199,"t":36138},{"dx":-2,"dy":-254,"t":36178},{"dx":29,"dy":-266,"t":36205},{"dx":26,"dy":-280,"t":36251},{"dx":25,"dy":-249,"t":36266}],[{"dx":-74,"dy":-110,"t":37244},{"dx":-38,"dy":-222,"t":37305},{"dx":-10,"dy":-223,"t":37333},{"dx":-51,"dy":-156,"t":37373},{"dx":-52,"dy":-130,"t":37403},{"dx":-35,"dy":-117,"t":37443},{"dx":7,"dy":-129,"t":37473},{"dx":-26,"dy":-146,"t":37513},{"dx":29,"dy":-197,"t":37542},{"dx":-25,"dy":-180,"t":37580},{"dx":-49,"dy":-170,"t":37612},{"dx":-46,"dy":-156,"t":37653},{"dx":-50,"dy":-148,"t":37682},{"dx":-6,"dy":-149,"t":37722},{"dx":18,"dy":-154,"t":37751},{"dx":4,"dy":-174,"t":37789},{"dx":-25,"dy":-188,"t":37818},{"dx":-76,"dy":-196,"t":37859},{"dx":-71,"dy":-208,"t":37889},{"dx":-89,"dy":-206,"t":37928},{"dx":-69,"dy":-213,"t":37957},{"dx":-55,"dy":-217,"t":37998},{"dx":-51,"dy":-210,"t":38030},{"dx":-4,"dy":-239,"t":38070},{"dx":-12,"dy":-248,"t":38100},{"dx":-92,"dy":-225,"t":38140},{"dx":-130,"dy":-226,"t":38170},{"dx":-112,"dy":-221,"t":38212},{"dx":-93,"dy":-225,"t":38242},{"dx":-65,"dy":-183,"t":38282},{"dx":-53,"dy":-159,"t":38313},{"dx":-8,"dy":-187,"t":38392},{"dx":-2,"dy":-219,"t":38418},{"dx":31,"dy":-262,"t":38456},{"dx":-8,"dy":-254,"t":38486},{"dx":-23,"dy":-256,"t":38526},{"dx":-48,"dy":-244,"t":38556},{"dx":-73,"dy":-181,"t":38595},{"dx":-124,"dy":-160,"t":38624},{"dx":-102,"dy":-154,"t":38662},{"dx":-107,"dy":-147,"t":38691},{"dx":-131,"dy":-129,"t":38731},{"dx":-147,"dy":-132,"t":38760},{"dx":-100,"dy":-186,"t":38800},{"dx":-96,"dy":-184,"t":38830},{"dx":-123,"dy":-144,"t":38871},{"dx":-139,"dy":-119,"t":38901},{"dx":-79,"dy":-186,"t":38940},{"dx":-55,"dy":-208,"t":38970},{"dx":-28,"dy":-231,"t":39009},{"dx":-19,"dy":-246,"t":39038},{"dx":-17,"dy":-233,"t":39078},{"dx":-33,"dy":-193,"t":39111},{"dx":-69,"dy":-210,"t":39154},{"dx":-85,"dy":-207,"t":39183},{"dx":-123,"dy":-196,"t":39223}]],"percent_in_roi":[96.61016949152543,49.122807017543856,21.666666666666668,44.44444444444444,43.859649122807014,0,3.389830508474576,65.51724137931035,3.4482758620689653,0,29.310344827586203,6.666666666666667,10.714285714285714],"average_offset":[{"x":1,"y":-70.88135593220339,"r":33.89611009842654},{"x":141.40350877192984,"y":40.64912280701754,"r":95.83394796864201},{"x":-194.1,"y":19.15,"r":91.57341067459538},{"x":-124.33333333333333,"y":-102.44444444444444,"r":74.31508441687355},{"x":-122.03508771929825,"y":-95.40350877192982,"r":60.26627331766812},{"x":-231.10344827586206,"y":-210.44827586206895,"r":64.00950645744469},{"x":-185.23728813559322,"y":-133.16949152542372,"r":65.89668556634471},{"x":-86.29310344827586,"y":-103.36206896551724,"r":67.40535027708016},{"x":158.93103448275863,"y":-187.24137931034483,"r":77.46232642613927},{"x":202.55172413793105,"y":-203.18965517241378,"r":81.69351417794353},{"x":-1.3448275862068966,"y":-158.72413793103448,"r":70.06935264668691},{"x":2.216666666666667,"y":-230.11666666666667,"r":85.28998456045404},{"x":-55.517857142857146,"y":-189.16071428571428,"r":79.96520841930972}],"samples_per_sec":"28.14","clicks":15,"pattern":"spread","trial_type":"webgazer-validate","trial_index":13,"time_elapsed":141124,"internal_node_id":"0.0-10.0-3.0","validation_points":[[25,25],[15,15],[85,15],[62.5,37.5],[62.5,62.5],[85,85],[75,75],[75,25],[25,75],[15,85],[37.5,37.5],[37.5,62.5],[50,50]],"user_agent":"Mozilla/5.0 (Windows NT 10.0; Win64; x64) AppleWebKit/537.36 (KHTML, like Gecko) Chrome/88.0.4324.190 Safari/537.36","screen_width_px":1280,"screen_height_px":720},{"rt":1382.515000000014,"stimulus":"\n      <p>Round complete.</p>\n      <p>You can move a little bit, but please try to return you head to the same general location before continuing.</p>\n    ","response":0,"trial_type":"html-button-response","trial_index":14,"time_elapsed":142509,"internal_node_id":"0.0-10.0-4.0","user_agent":"Mozilla/5.0 (Windows NT 10.0; Win64; x64) AppleWebKit/537.36 (KHTML, like Gecko) Chrome/88.0.4324.190 Safari/537.36","screen_width_px":1280,"screen_height_px":720},{"trial_type":"webgazer-init-camera","trial_index":15,"time_elapsed":145067,"internal_node_id":"0.0-10.0-5.0","user_agent":"Mozilla/5.0 (Windows NT 10.0; Win64; x64) AppleWebKit/537.36 (KHTML, like Gecko) Chrome/88.0.4324.190 Safari/537.36","screen_width_px":1280,"screen_height_px":720},{"rt":1090.4349999999686,"stimulus":"\n      <p>Calibration phase next.</p>\n      <p>Click on the dots.</p>\n    ","response":0,"trial_type":"html-button-response","trial_index":16,"time_elapsed":146159,"internal_node_id":"0.0-10.0-0.1","user_agent":"Mozilla/5.0 (Windows NT 10.0; Win64; x64) AppleWebKit/537.36 (KHTML, like Gecko) Chrome/88.0.4324.190 Safari/537.36","screen_width_px":1280,"screen_height_px":720},{"trial_type":"webgazer-calibrate","trial_index":17,"time_elapsed":182603,"internal_node_id":"0.0-10.0-1.1","user_agent":"Mozilla/5.0 (Windows NT 10.0; Win64; x64) AppleWebKit/537.36 (KHTML, like Gecko) Chrome/88.0.4324.190 Safari/537.36","screen_width_px":1280,"screen_height_px":720},{"rt":2668.3850000000675,"stimulus":"\n      <p>Validation phase next.</p>\n      <p>Look at the dots.</p>\n    ","response":0,"trial_type":"html-button-response","trial_index":18,"time_elapsed":185273,"internal_node_id":"0.0-10.0-2.1","user_agent":"Mozilla/5.0 (Windows NT 10.0; Win64; x64) AppleWebKit/537.36 (KHTML, like Gecko) Chrome/88.0.4324.190 Safari/537.36","screen_width_px":1280,"screen_height_px":720},{"raw_gaze":[[{"dx":20,"dy":-117,"t":1046},{"dx":87,"dy":-111,"t":1110},{"dx":63,"dy":-128,"t":1142},{"dx":-201,"dy":-217,"t":1184},{"dx":-347,"dy":-259,"t":1213},{"dx":-59,"dy":-145,"t":1254},{"dx":40,"dy":-103,"t":1285},{"dx":137,"dy":-16,"t":1325},{"dx":100,"dy":9,"t":1355},{"dx":-49,"dy":-11,"t":1395},{"dx":-98,"dy":3,"t":1427},{"dx":-105,"dy":-11,"t":1468},{"dx":-48,"dy":14,"t":1503},{"dx":-196,"dy":-4,"t":1541},{"dx":-312,"dy":12,"t":1573},{"dx":-446,"dy":-1,"t":1612},{"dx":-467,"dy":-28,"t":1642},{"dx":-103,"dy":26,"t":1683},{"dx":12,"dy":56,"t":1713},{"dx":-197,"dy":-44,"t":1753},{"dx":-235,"dy":-71,"t":1783},{"dx":-99,"dy":-45,"t":1823},{"dx":-28,"dy":-22,"t":1852},{"dx":-22,"dy":37,"t":1892},{"dx":-43,"dy":52,"t":1921},{"dx":-311,"dy":-19,"t":1960},{"dx":-456,"dy":-63,"t":1991},{"dx":-581,"dy":-94,"t":2030},{"dx":-599,"dy":-103,"t":2059},{"dx":-192,"dy":-39,"t":2098},{"dx":-7,"dy":-7,"t":2128},{"dx":-65,"dy":-23,"t":2168},{"dx":-47,"dy":-26,"t":2197},{"dx":-143,"dy":-52,"t":2238},{"dx":-206,"dy":-64,"t":2267},{"dx":43,"dy":10,"t":2308},{"dx":168,"dy":50,"t":2339},{"dx":9,"dy":24,"t":2384},{"dx":-173,"dy":-44,"t":2413},{"dx":-125,"dy":-32,"t":2454},{"dx":-53,"dy":-12,"t":2486},{"dx":86,"dy":4,"t":2526},{"dx":132,"dy":37,"t":2555},{"dx":14,"dy":-21,"t":2593},{"dx":-32,"dy":-32,"t":2623},{"dx":-169,"dy":-72,"t":2661},{"dx":-225,"dy":-89,"t":2691},{"dx":-58,"dy":-60,"t":2731},{"dx":138,"dy":-20,"t":2760},{"dx":63,"dy":-32,"t":2799},{"dx":108,"dy":3,"t":2829},{"dx":149,"dy":-35,"t":2867},{"dx":267,"dy":-25,"t":2896},{"dx":477,"dy":-2,"t":2936},{"dx":563,"dy":0,"t":2965},{"dx":463,"dy":-22,"t":3005},{"dx":447,"dy":-20,"t":3036},{"dx":353,"dy":10,"t":3064}],[{"dx":157,"dy":73,"t":4082},{"dx":73,"dy":51,"t":4111},{"dx":106,"dy":45,"t":4150},{"dx":72,"dy":58,"t":4180},{"dx":153,"dy":93,"t":4220},{"dx":71,"dy":77,"t":4254},{"dx":-22,"dy":43,"t":4304},{"dx":-40,"dy":27,"t":4333},{"dx":93,"dy":68,"t":4375},{"dx":226,"dy":106,"t":4406},{"dx":383,"dy":148,"t":4445},{"dx":391,"dy":147,"t":4475},{"dx":378,"dy":137,"t":4514},{"dx":361,"dy":128,"t":4543},{"dx":411,"dy":124,"t":4583},{"dx":434,"dy":106,"t":4613},{"dx":372,"dy":94,"t":4652},{"dx":335,"dy":96,"t":4681},{"dx":249,"dy":78,"t":4720},{"dx":222,"dy":77,"t":4753},{"dx":267,"dy":62,"t":4794},{"dx":355,"dy":43,"t":4823},{"dx":425,"dy":52,"t":4863},{"dx":441,"dy":68,"t":4893},{"dx":425,"dy":74,"t":4935},{"dx":362,"dy":71,"t":4966},{"dx":328,"dy":71,"t":5005},{"dx":327,"dy":70,"t":5034},{"dx":384,"dy":102,"t":5074},{"dx":402,"dy":114,"t":5106},{"dx":343,"dy":140,"t":5148},{"dx":378,"dy":122,"t":5177},{"dx":441,"dy":137,"t":5216},{"dx":462,"dy":153,"t":5247},{"dx":425,"dy":110,"t":5285},{"dx":354,"dy":97,"t":5316},{"dx":377,"dy":120,"t":5354},{"dx":361,"dy":123,"t":5382},{"dx":293,"dy":111,"t":5420},{"dx":271,"dy":113,"t":5450},{"dx":325,"dy":120,"t":5488},{"dx":264,"dy":114,"t":5518},{"dx":327,"dy":130,"t":5555},{"dx":233,"dy":122,"t":5585},{"dx":362,"dy":139,"t":5633},{"dx":420,"dy":146,"t":5687},{"dx":460,"dy":172,"t":5728},{"dx":469,"dy":193,"t":5757},{"dx":261,"dy":99,"t":5796},{"dx":223,"dy":63,"t":5826},{"dx":265,"dy":63,"t":5867},{"dx":273,"dy":74,"t":5896},{"dx":218,"dy":38,"t":5940},{"dx":161,"dy":25,"t":5970},{"dx":179,"dy":118,"t":6009},{"dx":231,"dy":197,"t":6040},{"dx":98,"dy":259,"t":6068}],[{"dx":344,"dy":-91,"t":7081},{"dx":339,"dy":-100,"t":7111},{"dx":392,"dy":-58,"t":7152},{"dx":422,"dy":-41,"t":7181},{"dx":293,"dy":-90,"t":7218},{"dx":291,"dy":-101,"t":7248},{"dx":258,"dy":-129,"t":7287},{"dx":241,"dy":-140,"t":7316},{"dx":439,"dy":-63,"t":7356},{"dx":535,"dy":-28,"t":7384},{"dx":510,"dy":-23,"t":7424},{"dx":565,"dy":1,"t":7453},{"dx":630,"dy":-18,"t":7494},{"dx":669,"dy":-26,"t":7529},{"dx":717,"dy":-10,"t":7576},{"dx":744,"dy":-14,"t":7607},{"dx":579,"dy":-94,"t":7647},{"dx":485,"dy":-133,"t":7677},{"dx":439,"dy":-185,"t":7716},{"dx":477,"dy":-155,"t":7746},{"dx":521,"dy":-93,"t":7786},{"dx":603,"dy":-61,"t":7816},{"dx":649,"dy":-70,"t":7855},{"dx":663,"dy":-81,"t":7886},{"dx":724,"dy":-103,"t":7929},{"dx":741,"dy":-118,"t":7959},{"dx":682,"dy":-133,"t":7998},{"dx":620,"dy":-138,"t":8028},{"dx":570,"dy":-137,"t":8068},{"dx":588,"dy":-138,"t":8099},{"dx":629,"dy":-97,"t":8139},{"dx":623,"dy":-70,"t":8169},{"dx":677,"dy":-23,"t":8208},{"dx":722,"dy":13,"t":8237},{"dx":748,"dy":3,"t":8276},{"dx":739,"dy":-17,"t":8305},{"dx":731,"dy":-44,"t":8345},{"dx":701,"dy":-54,"t":8374},{"dx":566,"dy":-118,"t":8414},{"dx":456,"dy":-166,"t":8444},{"dx":286,"dy":-242,"t":8483},{"dx":325,"dy":-228,"t":8513},{"dx":182,"dy":-273,"t":8554},{"dx":111,"dy":-279,"t":8582},{"dx":354,"dy":-138,"t":8622},{"dx":469,"dy":-86,"t":8652},{"dx":609,"dy":-47,"t":8690},{"dx":659,"dy":-40,"t":8720},{"dx":654,"dy":-75,"t":8760},{"dx":676,"dy":-54,"t":8790},{"dx":729,"dy":-78,"t":8830},{"dx":775,"dy":-72,"t":8860},{"dx":762,"dy":-74,"t":8898},{"dx":773,"dy":-62,"t":8927},{"dx":562,"dy":-78,"t":8967},{"dx":555,"dy":-55,"t":8996},{"dx":560,"dy":-48,"t":9037},{"dx":571,"dy":-23,"t":9067},{"dx":637,"dy":-22,"t":9094}],[{"dx":637,"dy":316,"t":10117},{"dx":639,"dy":300,"t":10148},{"dx":628,"dy":289,"t":10190},{"dx":631,"dy":226,"t":10220},{"dx":512,"dy":147,"t":10260},{"dx":499,"dy":107,"t":10290},{"dx":507,"dy":103,"t":10330},{"dx":481,"dy":100,"t":10360},{"dx":490,"dy":79,"t":10400},{"dx":497,"dy":68,"t":10429},{"dx":441,"dy":66,"t":10467},{"dx":467,"dy":40,"t":10497},{"dx":405,"dy":23,"t":10536},{"dx":339,"dy":27,"t":10566},{"dx":408,"dy":48,"t":10607},{"dx":418,"dy":45,"t":10636},{"dx":448,"dy":62,"t":10676},{"dx":520,"dy":103,"t":10705},{"dx":524,"dy":96,"t":10745},{"dx":548,"dy":91,"t":10774},{"dx":472,"dy":57,"t":10814},{"dx":429,"dy":34,"t":10844},{"dx":415,"dy":53,"t":10884},{"dx":376,"dy":60,"t":10915},{"dx":413,"dy":77,"t":10955},{"dx":464,"dy":80,"t":10985},{"dx":451,"dy":74,"t":11027},{"dx":402,"dy":53,"t":11057},{"dx":423,"dy":62,"t":11097},{"dx":413,"dy":60,"t":11128},{"dx":400,"dy":59,"t":11170},{"dx":396,"dy":60,"t":11235},{"dx":404,"dy":74,"t":11273},{"dx":409,"dy":81,"t":11302},{"dx":436,"dy":50,"t":11340},{"dx":454,"dy":17,"t":11369},{"dx":472,"dy":19,"t":11410},{"dx":486,"dy":30,"t":11440},{"dx":456,"dy":32,"t":11481},{"dx":445,"dy":32,"t":11511},{"dx":452,"dy":64,"t":11551},{"dx":514,"dy":102,"t":11580},{"dx":578,"dy":150,"t":11621},{"dx":639,"dy":200,"t":11650},{"dx":430,"dy":123,"t":11692},{"dx":285,"dy":69,"t":11721},{"dx":201,"dy":-24,"t":11760},{"dx":159,"dy":-30,"t":11790},{"dx":234,"dy":5,"t":11828},{"dx":280,"dy":19,"t":11857},{"dx":297,"dy":78,"t":11896},{"dx":299,"dy":118,"t":11925},{"dx":409,"dy":149,"t":11964},{"dx":426,"dy":147,"t":11994},{"dx":458,"dy":180,"t":12032},{"dx":455,"dy":192,"t":12062},{"dx":488,"dy":212,"t":12106},{"dx":503,"dy":236,"t":12120}],[{"dx":758,"dy":445,"t":13103},{"dx":815,"dy":452,"t":13165},{"dx":760,"dy":422,"t":13195},{"dx":698,"dy":321,"t":13236},{"dx":683,"dy":273,"t":13266},{"dx":620,"dy":219,"t":13306},{"dx":597,"dy":194,"t":13334},{"dx":533,"dy":177,"t":13374},{"dx":507,"dy":175,"t":13406},{"dx":541,"dy":171,"t":13461},{"dx":556,"dy":174,"t":13489},{"dx":479,"dy":199,"t":13527},{"dx":459,"dy":226,"t":13556},{"dx":425,"dy":248,"t":13624},{"dx":444,"dy":256,"t":13659},{"dx":502,"dy":253,"t":13699},{"dx":515,"dy":237,"t":13730},{"dx":546,"dy":218,"t":13767},{"dx":530,"dy":238,"t":13797},{"dx":509,"dy":225,"t":13837},{"dx":531,"dy":210,"t":13867},{"dx":556,"dy":202,"t":13906},{"dx":566,"dy":204,"t":13937},{"dx":556,"dy":212,"t":13979},{"dx":559,"dy":217,"t":14014},{"dx":589,"dy":240,"t":14062},{"dx":579,"dy":255,"t":14091},{"dx":520,"dy":288,"t":14130},{"dx":478,"dy":302,"t":14159},{"dx":480,"dy":335,"t":14198},{"dx":474,"dy":343,"t":14228},{"dx":502,"dy":333,"t":14268},{"dx":510,"dy":330,"t":14296},{"dx":496,"dy":281,"t":14336},{"dx":545,"dy":272,"t":14366},{"dx":466,"dy":245,"t":14410},{"dx":443,"dy":232,"t":14446},{"dx":445,"dy":250,"t":14490},{"dx":501,"dy":259,"t":14520},{"dx":599,"dy":257,"t":14559},{"dx":639,"dy":248,"t":14595},{"dx":630,"dy":230,"t":14634},{"dx":610,"dy":231,"t":14667},{"dx":585,"dy":229,"t":14707},{"dx":582,"dy":228,"t":14737},{"dx":606,"dy":228,"t":14778},{"dx":573,"dy":238,"t":14808},{"dx":480,"dy":222,"t":14848},{"dx":414,"dy":213,"t":14877},{"dx":402,"dy":229,"t":14917},{"dx":409,"dy":235,"t":14946},{"dx":546,"dy":244,"t":14988},{"dx":634,"dy":249,"t":15021},{"dx":649,"dy":257,"t":15060},{"dx":604,"dy":240,"t":15091},{"dx":647,"dy":237,"t":15136},{"dx":660,"dy":236,"t":15150}],[{"dx":304,"dy":110,"t":16161},{"dx":281,"dy":106,"t":16192},{"dx":313,"dy":186,"t":16232},{"dx":323,"dy":258,"t":16262},{"dx":478,"dy":292,"t":16302},{"dx":571,"dy":322,"t":16333},{"dx":550,"dy":338,"t":16373},{"dx":481,"dy":322,"t":16404},{"dx":310,"dy":331,"t":16445},{"dx":208,"dy":358,"t":16477},{"dx":221,"dy":386,"t":16518},{"dx":291,"dy":396,"t":16551},{"dx":433,"dy":389,"t":16593},{"dx":502,"dy":366,"t":16626},{"dx":451,"dy":260,"t":16669},{"dx":451,"dy":195,"t":16699},{"dx":427,"dy":102,"t":16737},{"dx":394,"dy":71,"t":16771},{"dx":325,"dy":53,"t":16817},{"dx":269,"dy":43,"t":16882},{"dx":369,"dy":87,"t":16920},{"dx":355,"dy":116,"t":16950},{"dx":354,"dy":126,"t":16991},{"dx":371,"dy":129,"t":17021},{"dx":398,"dy":122,"t":17062},{"dx":501,"dy":134,"t":17093},{"dx":558,"dy":102,"t":17133},{"dx":562,"dy":91,"t":17166},{"dx":486,"dy":57,"t":17209},{"dx":461,"dy":43,"t":17240},{"dx":367,"dy":38,"t":17280},{"dx":325,"dy":21,"t":17313},{"dx":293,"dy":44,"t":17353},{"dx":274,"dy":74,"t":17382},{"dx":280,"dy":90,"t":17422},{"dx":299,"dy":81,"t":17452},{"dx":368,"dy":71,"t":17493},{"dx":375,"dy":82,"t":17523},{"dx":317,"dy":117,"t":17563},{"dx":245,"dy":134,"t":17593},{"dx":183,"dy":166,"t":17634},{"dx":168,"dy":185,"t":17665},{"dx":273,"dy":138,"t":17706},{"dx":322,"dy":131,"t":17736},{"dx":348,"dy":86,"t":17775},{"dx":375,"dy":45,"t":17809},{"dx":347,"dy":72,"t":17850},{"dx":327,"dy":72,"t":17885},{"dx":271,"dy":107,"t":17927},{"dx":224,"dy":122,"t":17957},{"dx":244,"dy":132,"t":17996},{"dx":275,"dy":143,"t":18028},{"dx":309,"dy":110,"t":18071},{"dx":340,"dy":87,"t":18100},{"dx":289,"dy":84,"t":18146},{"dx":251,"dy":96,"t":18159}],[{"dx":454,"dy":-18,"t":19176},{"dx":444,"dy":-22,"t":19205},{"dx":471,"dy":-1,"t":19245},{"dx":467,"dy":9,"t":19274},{"dx":454,"dy":20,"t":19314},{"dx":412,"dy":-9,"t":19344},{"dx":337,"dy":20,"t":19389},{"dx":319,"dy":20,"t":19418},{"dx":343,"dy":-16,"t":19468},{"dx":327,"dy":-29,"t":19497},{"dx":416,"dy":-89,"t":19536},{"dx":415,"dy":-92,"t":19566},{"dx":437,"dy":-81,"t":19604},{"dx":426,"dy":-84,"t":19634},{"dx":359,"dy":-89,"t":19673},{"dx":309,"dy":-101,"t":19702},{"dx":230,"dy":-91,"t":19746},{"dx":190,"dy":-66,"t":19780},{"dx":105,"dy":-24,"t":19820},{"dx":96,"dy":-25,"t":19855},{"dx":176,"dy":-27,"t":19896},{"dx":193,"dy":-46,"t":19928},{"dx":116,"dy":-106,"t":19967},{"dx":156,"dy":-86,"t":19997},{"dx":227,"dy":-75,"t":20038},{"dx":291,"dy":-61,"t":20068},{"dx":383,"dy":-15,"t":20108},{"dx":420,"dy":5,"t":20138},{"dx":450,"dy":28,"t":20178},{"dx":426,"dy":27,"t":20208},{"dx":293,"dy":-19,"t":20250},{"dx":240,"dy":-32,"t":20280},{"dx":206,"dy":-31,"t":20321},{"dx":228,"dy":-18,"t":20354},{"dx":223,"dy":-38,"t":20395},{"dx":230,"dy":-75,"t":20425},{"dx":248,"dy":-118,"t":20465},{"dx":264,"dy":-87,"t":20494},{"dx":278,"dy":-18,"t":20534},{"dx":288,"dy":15,"t":20567},{"dx":306,"dy":0,"t":20608},{"dx":369,"dy":-8,"t":20637},{"dx":458,"dy":32,"t":20677},{"dx":481,"dy":45,"t":20707},{"dx":278,"dy":-20,"t":20747},{"dx":202,"dy":-35,"t":20776},{"dx":144,"dy":-35,"t":20815},{"dx":95,"dy":-49,"t":20847},{"dx":38,"dy":-68,"t":20890},{"dx":18,"dy":-73,"t":20923},{"dx":2,"dy":-50,"t":20961},{"dx":4,"dy":-27,"t":20992},{"dx":81,"dy":26,"t":21033},{"dx":152,"dy":38,"t":21062},{"dx":265,"dy":62,"t":21103},{"dx":280,"dy":40,"t":21140},{"dx":294,"dy":27,"t":21166}],[{"dx":222,"dy":181,"t":22175},{"dx":263,"dy":176,"t":22204},{"dx":279,"dy":182,"t":22245},{"dx":279,"dy":172,"t":22275},{"dx":287,"dy":177,"t":22315},{"dx":286,"dy":175,"t":22345},{"dx":299,"dy":143,"t":22387},{"dx":267,"dy":141,"t":22420},{"dx":283,"dy":131,"t":22463},{"dx":304,"dy":145,"t":22528},{"dx":299,"dy":150,"t":22566},{"dx":268,"dy":158,"t":22598},{"dx":290,"dy":145,"t":22637},{"dx":289,"dy":153,"t":22667},{"dx":313,"dy":180,"t":22710},{"dx":271,"dy":195,"t":22740},{"dx":227,"dy":217,"t":22781},{"dx":211,"dy":231,"t":22810},{"dx":172,"dy":233,"t":22851},{"dx":163,"dy":236,"t":22880},{"dx":154,"dy":241,"t":22920},{"dx":140,"dy":246,"t":22950},{"dx":152,"dy":241,"t":22990},{"dx":230,"dy":247,"t":23020},{"dx":327,"dy":258,"t":23060},{"dx":361,"dy":272,"t":23090},{"dx":304,"dy":257,"t":23130},{"dx":317,"dy":238,"t":23163},{"dx":251,"dy":214,"t":23204},{"dx":228,"dy":223,"t":23234},{"dx":237,"dy":181,"t":23275},{"dx":279,"dy":160,"t":23305},{"dx":302,"dy":156,"t":23345},{"dx":285,"dy":174,"t":23377},{"dx":353,"dy":205,"t":23438},{"dx":359,"dy":197,"t":23468},{"dx":366,"dy":194,"t":23535},{"dx":370,"dy":199,"t":23565},{"dx":332,"dy":205,"t":23606},{"dx":313,"dy":212,"t":23636},{"dx":274,"dy":194,"t":23676},{"dx":253,"dy":188,"t":23705},{"dx":285,"dy":214,"t":23744},{"dx":247,"dy":221,"t":23781},{"dx":163,"dy":203,"t":23822},{"dx":133,"dy":193,"t":23850},{"dx":138,"dy":168,"t":23889},{"dx":147,"dy":144,"t":23922},{"dx":233,"dy":167,"t":23964},{"dx":283,"dy":193,"t":24001},{"dx":267,"dy":222,"t":24043},{"dx":235,"dy":234,"t":24074},{"dx":288,"dy":229,"t":24113},{"dx":234,"dy":220,"t":24149},{"dx":255,"dy":195,"t":24179}],[{"dx":654,"dy":-146,"t":25180},{"dx":576,"dy":-180,"t":25210},{"dx":597,"dy":-182,"t":25251},{"dx":638,"dy":-165,"t":25282},{"dx":708,"dy":-47,"t":25324},{"dx":740,"dy":-8,"t":25356},{"dx":671,"dy":-70,"t":25400},{"dx":650,"dy":-105,"t":25430},{"dx":592,"dy":-146,"t":25478},{"dx":551,"dy":-179,"t":25506},{"dx":588,"dy":-164,"t":25545},{"dx":614,"dy":-125,"t":25576},{"dx":569,"dy":-140,"t":25618},{"dx":511,"dy":-144,"t":25649},{"dx":470,"dy":-171,"t":25687},{"dx":439,"dy":-186,"t":25716},{"dx":350,"dy":-232,"t":25754},{"dx":328,"dy":-256,"t":25783},{"dx":405,"dy":-221,"t":25824},{"dx":550,"dy":-203,"t":25852},{"dx":637,"dy":-215,"t":25890},{"dx":642,"dy":-225,"t":25921},{"dx":578,"dy":-226,"t":25958},{"dx":587,"dy":-238,"t":25991},{"dx":608,"dy":-186,"t":26038},{"dx":610,"dy":-176,"t":26073},{"dx":693,"dy":-138,"t":26113},{"dx":704,"dy":-118,"t":26143},{"dx":711,"dy":-161,"t":26182},{"dx":721,"dy":-188,"t":26212},{"dx":669,"dy":-214,"t":26251},{"dx":675,"dy":-233,"t":26282},{"dx":713,"dy":-147,"t":26321},{"dx":731,"dy":-96,"t":26351},{"dx":683,"dy":-144,"t":26390},{"dx":653,"dy":-154,"t":26421},{"dx":655,"dy":-160,"t":26461},{"dx":647,"dy":-146,"t":26490},{"dx":637,"dy":-144,"t":26530},{"dx":662,"dy":-153,"t":26560},{"dx":591,"dy":-200,"t":26600},{"dx":523,"dy":-216,"t":26630},{"dx":529,"dy":-204,"t":26669},{"dx":571,"dy":-193,"t":26700},{"dx":561,"dy":-176,"t":26742},{"dx":550,"dy":-184,"t":26772},{"dx":598,"dy":-217,"t":26816},{"dx":602,"dy":-248,"t":26846},{"dx":673,"dy":-225,"t":26884},{"dx":711,"dy":-216,"t":26915},{"dx":734,"dy":-183,"t":26956},{"dx":703,"dy":-159,"t":26987},{"dx":769,"dy":-159,"t":27026},{"dx":818,"dy":-169,"t":27056},{"dx":837,"dy":-130,"t":27096},{"dx":792,"dy":-113,"t":27130},{"dx":791,"dy":-57,"t":27177},{"dx":761,"dy":-25,"t":27192}],[{"dx":280,"dy":51,"t":28202},{"dx":251,"dy":50,"t":28235},{"dx":231,"dy":12,"t":28273},{"dx":222,"dy":-11,"t":28305},{"dx":325,"dy":10,"t":28344},{"dx":435,"dy":42,"t":28375},{"dx":447,"dy":28,"t":28414},{"dx":453,"dy":14,"t":28442},{"dx":432,"dy":-23,"t":28481},{"dx":434,"dy":-44,"t":28510},{"dx":292,"dy":-67,"t":28548},{"dx":216,"dy":-76,"t":28580},{"dx":177,"dy":-70,"t":28619},{"dx":164,"dy":-71,"t":28651},{"dx":163,"dy":5,"t":28699},{"dx":207,"dy":70,"t":28732},{"dx":211,"dy":31,"t":28777},{"dx":200,"dy":20,"t":28806},{"dx":205,"dy":5,"t":28846},{"dx":162,"dy":14,"t":28875},{"dx":226,"dy":12,"t":28914},{"dx":313,"dy":17,"t":28943},{"dx":388,"dy":43,"t":28983},{"dx":361,"dy":48,"t":29015},{"dx":362,"dy":-16,"t":29056},{"dx":326,"dy":-22,"t":29086},{"dx":341,"dy":11,"t":29127},{"dx":300,"dy":8,"t":29157},{"dx":315,"dy":-15,"t":29197},{"dx":312,"dy":-34,"t":29226},{"dx":323,"dy":-34,"t":29265},{"dx":334,"dy":-37,"t":29296},{"dx":366,"dy":28,"t":29339},{"dx":393,"dy":64,"t":29375},{"dx":450,"dy":69,"t":29414},{"dx":440,"dy":73,"t":29444},{"dx":423,"dy":99,"t":29485},{"dx":400,"dy":100,"t":29515},{"dx":327,"dy":53,"t":29557},{"dx":328,"dy":39,"t":29588},{"dx":382,"dy":55,"t":29628},{"dx":386,"dy":53,"t":29658},{"dx":371,"dy":53,"t":29697},{"dx":349,"dy":53,"t":29728},{"dx":313,"dy":26,"t":29767},{"dx":269,"dy":1,"t":29804},{"dx":305,"dy":29,"t":29847},{"dx":305,"dy":44,"t":29880},{"dx":388,"dy":40,"t":29921},{"dx":422,"dy":18,"t":29951},{"dx":406,"dy":-48,"t":29994},{"dx":383,"dy":-74,"t":30024},{"dx":369,"dy":-33,"t":30063},{"dx":385,"dy":-33,"t":30093},{"dx":301,"dy":-48,"t":30131},{"dx":289,"dy":-28,"t":30160},{"dx":296,"dy":-30,"t":30204},{"dx":354,"dy":-37,"t":30221}],[{"dx":486,"dy":-52,"t":31213},{"dx":380,"dy":-74,"t":31274},{"dx":327,"dy":-90,"t":31303},{"dx":358,"dy":-70,"t":31343},{"dx":381,"dy":-48,"t":31375},{"dx":313,"dy":-57,"t":31415},{"dx":357,"dy":-48,"t":31452},{"dx":357,"dy":-75,"t":31496},{"dx":400,"dy":-70,"t":31531},{"dx":440,"dy":-56,"t":31570},{"dx":484,"dy":-49,"t":31602},{"dx":450,"dy":-70,"t":31643},{"dx":426,"dy":-85,"t":31675},{"dx":401,"dy":-96,"t":31714},{"dx":428,"dy":-96,"t":31746},{"dx":490,"dy":-60,"t":31786},{"dx":501,"dy":-57,"t":31816},{"dx":453,"dy":-98,"t":31858},{"dx":397,"dy":-120,"t":31896},{"dx":376,"dy":-109,"t":31939},{"dx":426,"dy":-73,"t":31971},{"dx":402,"dy":-67,"t":32010},{"dx":382,"dy":-75,"t":32042},{"dx":463,"dy":-73,"t":32085},{"dx":492,"dy":-70,"t":32117},{"dx":493,"dy":-80,"t":32160},{"dx":516,"dy":-77,"t":32195},{"dx":522,"dy":-81,"t":32234},{"dx":510,"dy":-87,"t":32262},{"dx":488,"dy":-56,"t":32300},{"dx":476,"dy":-37,"t":32331},{"dx":443,"dy":-66,"t":32374},{"dx":457,"dy":-83,"t":32407},{"dx":497,"dy":-67,"t":32447},{"dx":514,"dy":-50,"t":32481},{"dx":562,"dy":-18,"t":32525},{"dx":550,"dy":-24,"t":32562},{"dx":542,"dy":-9,"t":32604},{"dx":563,"dy":-7,"t":32637},{"dx":486,"dy":-45,"t":32680},{"dx":449,"dy":-60,"t":32710},{"dx":375,"dy":-89,"t":32748},{"dx":346,"dy":-104,"t":32787},{"dx":420,"dy":-75,"t":32829},{"dx":438,"dy":-78,"t":32861},{"dx":410,"dy":-79,"t":32901},{"dx":398,"dy":-99,"t":32931},{"dx":357,"dy":-93,"t":32973},{"dx":356,"dy":-72,"t":33005},{"dx":419,"dy":-32,"t":33044},{"dx":433,"dy":-21,"t":33078},{"dx":451,"dy":8,"t":33129},{"dx":489,"dy":15,"t":33161},{"dx":493,"dy":-8,"t":33209},{"dx":521,"dy":-37,"t":33222}],[{"dx":314,"dy":63,"t":34215},{"dx":326,"dy":43,"t":34277},{"dx":284,"dy":42,"t":34305},{"dx":279,"dy":26,"t":34344},{"dx":280,"dy":15,"t":34375},{"dx":319,"dy":-16,"t":34414},{"dx":327,"dy":-30,"t":34444},{"dx":424,"dy":68,"t":34486},{"dx":476,"dy":76,"t":34516},{"dx":556,"dy":56,"t":34556},{"dx":516,"dy":47,"t":34585},{"dx":495,"dy":24,"t":34624},{"dx":449,"dy":19,"t":34654},{"dx":362,"dy":44,"t":34694},{"dx":372,"dy":34,"t":34726},{"dx":415,"dy":-3,"t":34770},{"dx":413,"dy":-1,"t":34802},{"dx":387,"dy":15,"t":34845},{"dx":358,"dy":17,"t":34882},{"dx":345,"dy":24,"t":34923},{"dx":326,"dy":30,"t":34951},{"dx":264,"dy":49,"t":34989},{"dx":225,"dy":66,"t":35020},{"dx":299,"dy":30,"t":35058},{"dx":349,"dy":24,"t":35090},{"dx":361,"dy":23,"t":35129},{"dx":370,"dy":33,"t":35161},{"dx":331,"dy":27,"t":35201},{"dx":323,"dy":37,"t":35229},{"dx":332,"dy":-6,"t":35269},{"dx":364,"dy":-25,"t":35301},{"dx":421,"dy":-1,"t":35340},{"dx":450,"dy":13,"t":35373},{"dx":459,"dy":-18,"t":35420},{"dx":423,"dy":-15,"t":35450},{"dx":433,"dy":-39,"t":35489},{"dx":457,"dy":-45,"t":35518},{"dx":435,"dy":-11,"t":35558},{"dx":462,"dy":12,"t":35590},{"dx":419,"dy":22,"t":35630},{"dx":411,"dy":21,"t":35660},{"dx":390,"dy":17,"t":35698},{"dx":397,"dy":16,"t":35726},{"dx":424,"dy":15,"t":35765},{"dx":440,"dy":32,"t":35794},{"dx":391,"dy":-10,"t":35834},{"dx":382,"dy":-19,"t":35872},{"dx":395,"dy":-3,"t":35917},{"dx":382,"dy":-2,"t":35946},{"dx":350,"dy":-4,"t":35985},{"dx":318,"dy":-11,"t":36014},{"dx":305,"dy":-4,"t":36055},{"dx":297,"dy":-5,"t":36085},{"dx":286,"dy":-22,"t":36125},{"dx":277,"dy":-21,"t":36153},{"dx":288,"dy":-32,"t":36199},{"dx":301,"dy":-34,"t":36231},{"dx":351,"dy":-10,"t":36257}],[{"dx":331,"dy":122,"t":37268},{"dx":353,"dy":126,"t":37298},{"dx":356,"dy":101,"t":37338},{"dx":308,"dy":104,"t":37368},{"dx":286,"dy":84,"t":37408},{"dx":273,"dy":71,"t":37438},{"dx":326,"dy":60,"t":37478},{"dx":347,"dy":66,"t":37508},{"dx":351,"dy":98,"t":37548},{"dx":372,"dy":109,"t":37578},{"dx":444,"dy":124,"t":37616},{"dx":453,"dy":129,"t":37646},{"dx":447,"dy":124,"t":37683},{"dx":436,"dy":117,"t":37716},{"dx":405,"dy":100,"t":37754},{"dx":395,"dy":105,"t":37782},{"dx":443,"dy":103,"t":37819},{"dx":461,"dy":104,"t":37847},{"dx":441,"dy":92,"t":37885},{"dx":463,"dy":79,"t":37913},{"dx":464,"dy":103,"t":37951},{"dx":478,"dy":102,"t":37980},{"dx":482,"dy":107,"t":38017},{"dx":464,"dy":117,"t":38045},{"dx":432,"dy":133,"t":38084},{"dx":420,"dy":138,"t":38112},{"dx":393,"dy":121,"t":38150},{"dx":387,"dy":110,"t":38181},{"dx":319,"dy":99,"t":38223},{"dx":316,"dy":94,"t":38256},{"dx":277,"dy":111,"t":38299},{"dx":246,"dy":93,"t":38331},{"dx":260,"dy":104,"t":38372},{"dx":324,"dy":126,"t":38402},{"dx":343,"dy":112,"t":38441},{"dx":365,"dy":107,"t":38471},{"dx":380,"dy":79,"t":38510},{"dx":393,"dy":66,"t":38538},{"dx":315,"dy":65,"t":38576},{"dx":291,"dy":65,"t":38605},{"dx":329,"dy":91,"t":38646},{"dx":354,"dy":100,"t":38675},{"dx":316,"dy":110,"t":38714},{"dx":287,"dy":120,"t":38744},{"dx":364,"dy":118,"t":38783},{"dx":390,"dy":112,"t":38813},{"dx":392,"dy":114,"t":38853},{"dx":412,"dy":123,"t":38882},{"dx":437,"dy":118,"t":38921},{"dx":431,"dy":110,"t":38950},{"dx":504,"dy":90,"t":38990},{"dx":507,"dy":87,"t":39023},{"dx":465,"dy":74,"t":39103},{"dx":419,"dy":55,"t":39130},{"dx":321,"dy":86,"t":39168},{"dx":290,"dy":123,"t":39198}]],"percent_in_roi":[53.44827586206896,12.280701754385964,0,0,0,0,15.789473684210526,0,0,0,0,0,0],"average_offset":[{"x":-44.10344827586207,"y":-34.37931034482759,"r":216.2375903064928},{"x":291.49122807017545,"y":101.7719298245614,"r":93.40655517195796},{"x":552.0508474576271,"y":-86.72881355932203,"r":131.77667880433964},{"x":444.17241379310343,"y":92.93103448275862,"r":96.72322469652602},{"x":553.3684210526316,"y":252.35087719298247,"r":79.39836871208206},{"x":351.55357142857144,"y":150.33928571428572,"r":162.32813355292956},{"x":277.43859649122805,"y":-28.771929824561404,"r":101.45407134961788},{"x":261.2181818181818,"y":196.83636363636364,"r":54.45015917984765},{"x":629.8448275862069,"y":-165.6206896551724,"r":120.52734745008496},{"x":324.2758620689655,"y":9.258620689655173,"r":110.64076559949962},{"x":442.6181818181818,"y":-62.70909090909091,"r":57.513583016579304},{"x":372.1551724137931,"y":11.948275862068966,"r":86.95317580302549},{"x":379.60714285714283,"y":101.80357142857143,"r":91.56474234199791}],"samples_per_sec":"27.95","clicks":25,"pattern":"cond","trial_type":"webgazer-validate","trial_index":19,"time_elapsed":225498,"internal_node_id":"0.0-10.0-3.1","validation_points":[[75,75],[75,25],[25,75],[50,50],[15,15],[62.5,37.5],[85,85],[85,15],[15,85],[62.5,62.5],[37.5,62.5],[37.5,37.5],[25,25]],"user_agent":"Mozilla/5.0 (Windows NT 10.0; Win64; x64) AppleWebKit/537.36 (KHTML, like Gecko) Chrome/88.0.4324.190 Safari/537.36","screen_width_px":1280,"screen_height_px":720},{"rt":2019.265000000014,"stimulus":"\n      <p>Round complete.</p>\n      <p>You can move a little bit, but please try to return you head to the same general location before continuing.</p>\n    ","response":0,"trial_type":"html-button-response","trial_index":20,"time_elapsed":227519,"internal_node_id":"0.0-10.0-4.1","user_agent":"Mozilla/5.0 (Windows NT 10.0; Win64; x64) AppleWebKit/537.36 (KHTML, like Gecko) Chrome/88.0.4324.190 Safari/537.36","screen_width_px":1280,"screen_height_px":720},{"trial_type":"webgazer-init-camera","trial_index":21,"time_elapsed":230505,"internal_node_id":"0.0-10.0-5.1","user_agent":"Mozilla/5.0 (Windows NT 10.0; Win64; x64) AppleWebKit/537.36 (KHTML, like Gecko) Chrome/88.0.4324.190 Safari/537.36","screen_width_px":1280,"screen_height_px":720},{"rt":1093.3750000000582,"stimulus":"\n      <p>Calibration phase next.</p>\n      <p>Click on the dots.</p>\n    ","response":0,"trial_type":"html-button-response","trial_index":22,"time_elapsed":231599,"internal_node_id":"0.0-10.0-0.2","user_agent":"Mozilla/5.0 (Windows NT 10.0; Win64; x64) AppleWebKit/537.36 (KHTML, like Gecko) Chrome/88.0.4324.190 Safari/537.36","screen_width_px":1280,"screen_height_px":720},{"trial_type":"webgazer-calibrate","trial_index":23,"time_elapsed":238496,"internal_node_id":"0.0-10.0-1.2","user_agent":"Mozilla/5.0 (Windows NT 10.0; Win64; x64) AppleWebKit/537.36 (KHTML, like Gecko) Chrome/88.0.4324.190 Safari/537.36","screen_width_px":1280,"screen_height_px":720},{"rt":1306.6299999999173,"stimulus":"\n      <p>Validation phase next.</p>\n      <p>Look at the dots.</p>\n    ","response":0,"trial_type":"html-button-response","trial_index":24,"time_elapsed":239803,"internal_node_id":"0.0-10.0-2.2","user_agent":"Mozilla/5.0 (Windows NT 10.0; Win64; x64) AppleWebKit/537.36 (KHTML, like Gecko) Chrome/88.0.4324.190 Safari/537.36","screen_width_px":1280,"screen_height_px":720},{"raw_gaze":[[{"dx":57,"dy":-51,"t":1064},{"dx":27,"dy":-57,"t":1096},{"dx":-10,"dy":-57,"t":1136},{"dx":-23,"dy":-54,"t":1167},{"dx":17,"dy":-50,"t":1208},{"dx":52,"dy":-47,"t":1237},{"dx":91,"dy":-43,"t":1277},{"dx":97,"dy":-41,"t":1306},{"dx":97,"dy":-12,"t":1346},{"dx":67,"dy":-12,"t":1374},{"dx":23,"dy":5,"t":1415},{"dx":-12,"dy":18,"t":1447},{"dx":-38,"dy":1,"t":1487},{"dx":17,"dy":1,"t":1516},{"dx":56,"dy":6,"t":1556},{"dx":61,"dy":12,"t":1585},{"dx":47,"dy":4,"t":1626},{"dx":50,"dy":-10,"t":1654},{"dx":80,"dy":-5,"t":1694},{"dx":123,"dy":-6,"t":1725},{"dx":112,"dy":-28,"t":1763},{"dx":99,"dy":-37,"t":1796},{"dx":67,"dy":-49,"t":1835},{"dx":93,"dy":-42,"t":1866},{"dx":83,"dy":-27,"t":1905},{"dx":123,"dy":-11,"t":1937},{"dx":69,"dy":14,"t":1978},{"dx":34,"dy":20,"t":2007},{"dx":31,"dy":29,"t":2047},{"dx":47,"dy":31,"t":2076},{"dx":90,"dy":24,"t":2115},{"dx":84,"dy":17,"t":2145},{"dx":-31,"dy":-2,"t":2186},{"dx":-75,"dy":-13,"t":2215},{"dx":-43,"dy":-26,"t":2254},{"dx":-52,"dy":-20,"t":2285},{"dx":10,"dy":-12,"t":2324},{"dx":35,"dy":-6,"t":2356},{"dx":28,"dy":-21,"t":2395},{"dx":47,"dy":-32,"t":2422},{"dx":51,"dy":-39,"t":2461},{"dx":20,"dy":-40,"t":2492},{"dx":20,"dy":-30,"t":2531},{"dx":-6,"dy":-16,"t":2561},{"dx":20,"dy":-21,"t":2600},{"dx":37,"dy":-23,"t":2631},{"dx":-9,"dy":-15,"t":2670},{"dx":-39,"dy":-6,"t":2701},{"dx":-108,"dy":-1,"t":2745},{"dx":-148,"dy":-5,"t":2780},{"dx":-193,"dy":-2,"t":2820},{"dx":-182,"dy":1,"t":2849},{"dx":-212,"dy":50,"t":2889},{"dx":-252,"dy":89,"t":2917},{"dx":-268,"dy":125,"t":2961},{"dx":-290,"dy":148,"t":2990},{"dx":-274,"dy":201,"t":3029},{"dx":-270,"dy":215,"t":3059},{"dx":-210,"dy":203,"t":3087}],[{"dx":-161,"dy":-172,"t":4097},{"dx":-185,"dy":-190,"t":4125},{"dx":-192,"dy":-209,"t":4166},{"dx":-175,"dy":-219,"t":4233},{"dx":-98,"dy":-224,"t":4270},{"dx":-73,"dy":-224,"t":4300},{"dx":-17,"dy":-173,"t":4339},{"dx":5,"dy":-152,"t":4368},{"dx":-31,"dy":-102,"t":4409},{"dx":-91,"dy":-72,"t":4442},{"dx":-214,"dy":-51,"t":4485},{"dx":-318,"dy":-55,"t":4514},{"dx":-334,"dy":-25,"t":4554},{"dx":-361,"dy":-25,"t":4583},{"dx":-353,"dy":19,"t":4622},{"dx":-332,"dy":38,"t":4652},{"dx":-307,"dy":63,"t":4693},{"dx":-298,"dy":68,"t":4722},{"dx":-262,"dy":47,"t":4764},{"dx":-218,"dy":45,"t":4794},{"dx":-162,"dy":-3,"t":4833},{"dx":-109,"dy":-31,"t":4863},{"dx":-57,"dy":-91,"t":4903},{"dx":-19,"dy":-130,"t":4932},{"dx":64,"dy":-177,"t":4972},{"dx":106,"dy":-188,"t":5000},{"dx":71,"dy":-180,"t":5041},{"dx":99,"dy":-189,"t":5072},{"dx":54,"dy":-183,"t":5111},{"dx":-7,"dy":-179,"t":5140},{"dx":-39,"dy":-165,"t":5180},{"dx":-42,"dy":-168,"t":5209},{"dx":-73,"dy":-166,"t":5249},{"dx":-63,"dy":-170,"t":5278},{"dx":-103,"dy":-183,"t":5317},{"dx":-88,"dy":-193,"t":5348},{"dx":-176,"dy":-144,"t":5389},{"dx":-214,"dy":-124,"t":5418},{"dx":-246,"dy":-84,"t":5458},{"dx":-263,"dy":-69,"t":5487},{"dx":-223,"dy":-66,"t":5530},{"dx":-231,"dy":-66,"t":5558},{"dx":-173,"dy":-95,"t":5598},{"dx":-119,"dy":-117,"t":5626},{"dx":-54,"dy":-140,"t":5666},{"dx":-78,"dy":-149,"t":5692},{"dx":-81,"dy":-162,"t":5730},{"dx":-103,"dy":-172,"t":5761},{"dx":-110,"dy":-196,"t":5806},{"dx":-99,"dy":-206,"t":5834},{"dx":-72,"dy":-213,"t":5871},{"dx":-50,"dy":-207,"t":5899},{"dx":-86,"dy":-183,"t":5937},{"dx":-110,"dy":-170,"t":5965},{"dx":-145,"dy":-170,"t":6009},{"dx":-142,"dy":-178,"t":6037},{"dx":-206,"dy":-169,"t":6080},{"dx":-245,"dy":-164,"t":6093}],[{"dx":-67,"dy":-121,"t":7117},{"dx":-98,"dy":-124,"t":7145},{"dx":-147,"dy":-125,"t":7186},{"dx":-155,"dy":-123,"t":7216},{"dx":-175,"dy":-127,"t":7256},{"dx":-172,"dy":-128,"t":7285},{"dx":-215,"dy":-50,"t":7326},{"dx":-224,"dy":-5,"t":7355},{"dx":-141,"dy":-6,"t":7396},{"dx":-130,"dy":-24,"t":7426},{"dx":-42,"dy":-68,"t":7467},{"dx":-9,"dy":-89,"t":7496},{"dx":-14,"dy":-86,"t":7535},{"dx":-55,"dy":-72,"t":7564},{"dx":-24,"dy":-94,"t":7602},{"dx":-10,"dy":-96,"t":7632},{"dx":29,"dy":-105,"t":7672},{"dx":59,"dy":-106,"t":7708},{"dx":67,"dy":-105,"t":7749},{"dx":38,"dy":-109,"t":7778},{"dx":6,"dy":-94,"t":7817},{"dx":2,"dy":-86,"t":7847},{"dx":-51,"dy":-98,"t":7886},{"dx":-63,"dy":-82,"t":7916},{"dx":-52,"dy":-60,"t":7957},{"dx":-17,"dy":-55,"t":7988},{"dx":-120,"dy":1,"t":8029},{"dx":-130,"dy":15,"t":8058},{"dx":-88,"dy":-34,"t":8097},{"dx":-81,"dy":-50,"t":8126},{"dx":-98,"dy":-80,"t":8166},{"dx":-107,"dy":-91,"t":8195},{"dx":-82,"dy":-116,"t":8235},{"dx":-44,"dy":-128,"t":8264},{"dx":-63,"dy":-139,"t":8304},{"dx":-53,"dy":-118,"t":8333},{"dx":-34,"dy":-132,"t":8372},{"dx":-15,"dy":-140,"t":8401},{"dx":-41,"dy":-116,"t":8441},{"dx":-5,"dy":-115,"t":8470},{"dx":-2,"dy":-126,"t":8510},{"dx":-31,"dy":-136,"t":8541},{"dx":-35,"dy":-138,"t":8581},{"dx":-25,"dy":-132,"t":8611},{"dx":-35,"dy":-135,"t":8651},{"dx":-50,"dy":-134,"t":8682},{"dx":-68,"dy":-141,"t":8724},{"dx":-104,"dy":-139,"t":8754},{"dx":-68,"dy":-123,"t":8797},{"dx":-53,"dy":-111,"t":8828},{"dx":-88,"dy":-94,"t":8869},{"dx":-111,"dy":-86,"t":8898},{"dx":-142,"dy":-86,"t":8940},{"dx":-195,"dy":-95,"t":8969},{"dx":-201,"dy":-102,"t":9009},{"dx":-212,"dy":-86,"t":9039},{"dx":-171,"dy":-85,"t":9087},{"dx":-191,"dy":-83,"t":9100}],[{"dx":132,"dy":113,"t":10110},{"dx":106,"dy":120,"t":10139},{"dx":167,"dy":111,"t":10180},{"dx":175,"dy":114,"t":10209},{"dx":160,"dy":99,"t":10250},{"dx":150,"dy":92,"t":10279},{"dx":156,"dy":97,"t":10319},{"dx":161,"dy":103,"t":10347},{"dx":155,"dy":125,"t":10385},{"dx":171,"dy":130,"t":10415},{"dx":206,"dy":129,"t":10458},{"dx":214,"dy":123,"t":10487},{"dx":225,"dy":125,"t":10526},{"dx":235,"dy":130,"t":10556},{"dx":246,"dy":136,"t":10597},{"dx":245,"dy":138,"t":10628},{"dx":228,"dy":124,"t":10669},{"dx":217,"dy":115,"t":10698},{"dx":186,"dy":109,"t":10739},{"dx":188,"dy":107,"t":10768},{"dx":182,"dy":109,"t":10809},{"dx":198,"dy":117,"t":10838},{"dx":198,"dy":115,"t":10879},{"dx":200,"dy":109,"t":10909},{"dx":195,"dy":105,"t":10951},{"dx":170,"dy":111,"t":10980},{"dx":176,"dy":111,"t":11021},{"dx":178,"dy":113,"t":11051},{"dx":230,"dy":112,"t":11089},{"dx":250,"dy":136,"t":11118},{"dx":278,"dy":146,"t":11158},{"dx":290,"dy":131,"t":11187},{"dx":239,"dy":134,"t":11228},{"dx":218,"dy":138,"t":11256},{"dx":175,"dy":131,"t":11296},{"dx":152,"dy":125,"t":11325},{"dx":164,"dy":122,"t":11364},{"dx":163,"dy":124,"t":11393},{"dx":130,"dy":131,"t":11434},{"dx":123,"dy":123,"t":11463},{"dx":157,"dy":121,"t":11502},{"dx":181,"dy":111,"t":11531},{"dx":199,"dy":91,"t":11574},{"dx":211,"dy":82,"t":11604},{"dx":182,"dy":88,"t":11644},{"dx":158,"dy":93,"t":11673},{"dx":150,"dy":108,"t":11713},{"dx":134,"dy":110,"t":11741},{"dx":178,"dy":99,"t":11781},{"dx":188,"dy":87,"t":11813},{"dx":177,"dy":74,"t":11854},{"dx":185,"dy":74,"t":11883},{"dx":205,"dy":103,"t":11924},{"dx":206,"dy":108,"t":11953},{"dx":148,"dy":100,"t":11994},{"dx":146,"dy":118,"t":12022},{"dx":158,"dy":113,"t":12064},{"dx":171,"dy":110,"t":12095},{"dx":167,"dy":111,"t":12122}],[{"dx":-219,"dy":101,"t":13142},{"dx":-237,"dy":87,"t":13171},{"dx":-230,"dy":82,"t":13211},{"dx":-229,"dy":75,"t":13241},{"dx":-230,"dy":73,"t":13282},{"dx":-246,"dy":85,"t":13311},{"dx":-206,"dy":88,"t":13352},{"dx":-180,"dy":97,"t":13381},{"dx":-149,"dy":111,"t":13423},{"dx":-158,"dy":124,"t":13455},{"dx":-177,"dy":116,"t":13495},{"dx":-196,"dy":107,"t":13523},{"dx":-197,"dy":115,"t":13564},{"dx":-175,"dy":132,"t":13594},{"dx":-149,"dy":143,"t":13637},{"dx":-178,"dy":146,"t":13669},{"dx":-134,"dy":137,"t":13709},{"dx":-104,"dy":144,"t":13738},{"dx":-87,"dy":131,"t":13776},{"dx":-67,"dy":130,"t":13805},{"dx":-104,"dy":130,"t":13844},{"dx":-120,"dy":133,"t":13873},{"dx":-84,"dy":133,"t":13915},{"dx":-70,"dy":134,"t":13944},{"dx":-34,"dy":126,"t":13983},{"dx":-58,"dy":115,"t":14013},{"dx":-86,"dy":104,"t":14052},{"dx":-105,"dy":100,"t":14082},{"dx":-145,"dy":108,"t":14123},{"dx":-157,"dy":113,"t":14152},{"dx":-173,"dy":125,"t":14193},{"dx":-168,"dy":117,"t":14225},{"dx":-146,"dy":111,"t":14264},{"dx":-122,"dy":108,"t":14294},{"dx":-130,"dy":99,"t":14334},{"dx":-136,"dy":103,"t":14363},{"dx":-223,"dy":128,"t":14401},{"dx":-242,"dy":139,"t":14431},{"dx":-269,"dy":145,"t":14471},{"dx":-277,"dy":141,"t":14500},{"dx":-249,"dy":131,"t":14540},{"dx":-220,"dy":125,"t":14570},{"dx":-219,"dy":136,"t":14609},{"dx":-230,"dy":143,"t":14639},{"dx":-233,"dy":150,"t":14679},{"dx":-207,"dy":144,"t":14708},{"dx":-194,"dy":120,"t":14749},{"dx":-197,"dy":120,"t":14778},{"dx":-195,"dy":131,"t":14817},{"dx":-156,"dy":124,"t":14846},{"dx":-156,"dy":133,"t":14886},{"dx":-178,"dy":133,"t":14915},{"dx":-175,"dy":127,"t":14956},{"dx":-177,"dy":133,"t":14986},{"dx":-171,"dy":147,"t":15026},{"dx":-164,"dy":155,"t":15055},{"dx":-127,"dy":153,"t":15096},{"dx":-100,"dy":152,"t":15135},{"dx":-118,"dy":119,"t":15163}],[{"dx":18,"dy":-140,"t":16173},{"dx":-17,"dy":-154,"t":16203},{"dx":17,"dy":-166,"t":16241},{"dx":45,"dy":-164,"t":16270},{"dx":52,"dy":-174,"t":16310},{"dx":48,"dy":-164,"t":16339},{"dx":64,"dy":-192,"t":16381},{"dx":61,"dy":-210,"t":16410},{"dx":73,"dy":-200,"t":16451},{"dx":83,"dy":-200,"t":16481},{"dx":49,"dy":-223,"t":16523},{"dx":51,"dy":-221,"t":16552},{"dx":13,"dy":-214,"t":16592},{"dx":-9,"dy":-191,"t":16622},{"dx":-18,"dy":-175,"t":16664},{"dx":-11,"dy":-178,"t":16693},{"dx":14,"dy":-180,"t":16733},{"dx":24,"dy":-179,"t":16763},{"dx":66,"dy":-177,"t":16802},{"dx":84,"dy":-180,"t":16832},{"dx":89,"dy":-184,"t":16871},{"dx":80,"dy":-185,"t":16900},{"dx":30,"dy":-182,"t":16940},{"dx":24,"dy":-176,"t":16969},{"dx":33,"dy":-177,"t":17007},{"dx":21,"dy":-161,"t":17037},{"dx":82,"dy":-161,"t":17075},{"dx":124,"dy":-164,"t":17105},{"dx":128,"dy":-169,"t":17145},{"dx":121,"dy":-172,"t":17174},{"dx":52,"dy":-173,"t":17216},{"dx":15,"dy":-189,"t":17253},{"dx":1,"dy":-207,"t":17295},{"dx":16,"dy":-210,"t":17325},{"dx":27,"dy":-214,"t":17365},{"dx":43,"dy":-222,"t":17394},{"dx":4,"dy":-204,"t":17435},{"dx":-41,"dy":-184,"t":17464},{"dx":-18,"dy":-152,"t":17503},{"dx":15,"dy":-150,"t":17533},{"dx":61,"dy":-169,"t":17573},{"dx":90,"dy":-176,"t":17602},{"dx":87,"dy":-180,"t":17645},{"dx":81,"dy":-194,"t":17674},{"dx":37,"dy":-195,"t":17715},{"dx":-6,"dy":-202,"t":17747},{"dx":-11,"dy":-197,"t":17787},{"dx":-17,"dy":-182,"t":17817},{"dx":42,"dy":-187,"t":17858},{"dx":67,"dy":-187,"t":17887},{"dx":83,"dy":-212,"t":17930},{"dx":79,"dy":-218,"t":17959},{"dx":71,"dy":-231,"t":17999},{"dx":54,"dy":-228,"t":18028},{"dx":48,"dy":-206,"t":18068},{"dx":58,"dy":-187,"t":18097},{"dx":58,"dy":-172,"t":18147},{"dx":51,"dy":-173,"t":18159}],[{"dx":-69,"dy":-217,"t":19172},{"dx":-67,"dy":-228,"t":19201},{"dx":-7,"dy":-246,"t":19241},{"dx":3,"dy":-251,"t":19270},{"dx":-31,"dy":-235,"t":19309},{"dx":-78,"dy":-217,"t":19340},{"dx":-123,"dy":-179,"t":19381},{"dx":-137,"dy":-163,"t":19411},{"dx":-172,"dy":-137,"t":19451},{"dx":-138,"dy":-141,"t":19480},{"dx":-85,"dy":-110,"t":19521},{"dx":-53,"dy":-99,"t":19551},{"dx":-42,"dy":-100,"t":19592},{"dx":-45,"dy":-101,"t":19623},{"dx":-73,"dy":-117,"t":19663},{"dx":-77,"dy":-134,"t":19692},{"dx":-111,"dy":-153,"t":19731},{"dx":-117,"dy":-160,"t":19761},{"dx":-139,"dy":-192,"t":19800},{"dx":-146,"dy":-207,"t":19828},{"dx":-160,"dy":-197,"t":19870},{"dx":-158,"dy":-175,"t":19899},{"dx":-118,"dy":-116,"t":19940},{"dx":-108,"dy":-103,"t":19969},{"dx":-88,"dy":-90,"t":20013},{"dx":-88,"dy":-82,"t":20042},{"dx":-83,"dy":-78,"t":20083},{"dx":-67,"dy":-77,"t":20113},{"dx":-136,"dy":-74,"t":20153},{"dx":-167,"dy":-66,"t":20183},{"dx":-101,"dy":-73,"t":20223},{"dx":-36,"dy":-71,"t":20252},{"dx":-51,"dy":-95,"t":20292},{"dx":-49,"dy":-91,"t":20322},{"dx":-38,"dy":-76,"t":20361},{"dx":-40,"dy":-71,"t":20391},{"dx":-36,"dy":-114,"t":20430},{"dx":-46,"dy":-125,"t":20460},{"dx":-49,"dy":-152,"t":20500},{"dx":-37,"dy":-170,"t":20530},{"dx":-37,"dy":-160,"t":20570},{"dx":-33,"dy":-151,"t":20599},{"dx":-87,"dy":-130,"t":20639},{"dx":-100,"dy":-118,"t":20669},{"dx":-151,"dy":-132,"t":20709},{"dx":-171,"dy":-123,"t":20744},{"dx":-160,"dy":-120,"t":20783},{"dx":-164,"dy":-117,"t":20812},{"dx":-97,"dy":-149,"t":20853},{"dx":-101,"dy":-125,"t":20882},{"dx":-55,"dy":-148,"t":20929},{"dx":-98,"dy":-144,"t":20962},{"dx":-94,"dy":-156,"t":21040},{"dx":-91,"dy":-156,"t":21068},{"dx":-68,"dy":-144,"t":21106},{"dx":-67,"dy":-137,"t":21143},{"dx":14,"dy":-131,"t":21171}],[{"dx":-217,"dy":2,"t":22146},{"dx":-192,"dy":-1,"t":22211},{"dx":-176,"dy":-5,"t":22240},{"dx":-156,"dy":-5,"t":22281},{"dx":-155,"dy":0,"t":22310},{"dx":-148,"dy":-6,"t":22349},{"dx":-151,"dy":-12,"t":22379},{"dx":-136,"dy":-10,"t":22420},{"dx":-120,"dy":-3,"t":22449},{"dx":-107,"dy":14,"t":22489},{"dx":-107,"dy":22,"t":22520},{"dx":-94,"dy":20,"t":22559},{"dx":-116,"dy":18,"t":22588},{"dx":-96,"dy":41,"t":22627},{"dx":-86,"dy":60,"t":22656},{"dx":-142,"dy":55,"t":22695},{"dx":-158,"dy":48,"t":22727},{"dx":-161,"dy":57,"t":22768},{"dx":-171,"dy":64,"t":22797},{"dx":-173,"dy":56,"t":22839},{"dx":-132,"dy":39,"t":22868},{"dx":-106,"dy":37,"t":22908},{"dx":-110,"dy":47,"t":22937},{"dx":-123,"dy":54,"t":22976},{"dx":-136,"dy":51,"t":23005},{"dx":-148,"dy":38,"t":23046},{"dx":-159,"dy":29,"t":23075},{"dx":-175,"dy":-6,"t":23115},{"dx":-192,"dy":-22,"t":23144},{"dx":-197,"dy":-7,"t":23182},{"dx":-191,"dy":8,"t":23212},{"dx":-163,"dy":-10,"t":23251},{"dx":-153,"dy":-19,"t":23280},{"dx":-142,"dy":-9,"t":23320},{"dx":-134,"dy":1,"t":23349},{"dx":-127,"dy":12,"t":23389},{"dx":-132,"dy":14,"t":23418},{"dx":-162,"dy":4,"t":23457},{"dx":-171,"dy":4,"t":23486},{"dx":-191,"dy":1,"t":23526},{"dx":-207,"dy":0,"t":23555},{"dx":-231,"dy":1,"t":23595},{"dx":-242,"dy":0,"t":23624},{"dx":-232,"dy":7,"t":23664},{"dx":-221,"dy":14,"t":23697},{"dx":-215,"dy":29,"t":23737},{"dx":-214,"dy":33,"t":23766},{"dx":-198,"dy":33,"t":23806},{"dx":-190,"dy":44,"t":23835},{"dx":-224,"dy":47,"t":23874},{"dx":-260,"dy":55,"t":23903},{"dx":-238,"dy":59,"t":23944},{"dx":-237,"dy":55,"t":23973},{"dx":-233,"dy":25,"t":24012},{"dx":-208,"dy":12,"t":24041},{"dx":-210,"dy":36,"t":24084},{"dx":-187,"dy":53,"t":24114},{"dx":-165,"dy":60,"t":24161},{"dx":-170,"dy":62,"t":24173}],[{"dx":-24,"dy":-89,"t":25162},{"dx":29,"dy":-97,"t":25224},{"dx":42,"dy":-99,"t":25253},{"dx":42,"dy":-111,"t":25294},{"dx":58,"dy":-112,"t":25324},{"dx":0,"dy":-92,"t":25365},{"dx":-32,"dy":-79,"t":25394},{"dx":22,"dy":-99,"t":25434},{"dx":66,"dy":-88,"t":25463},{"dx":95,"dy":-97,"t":25503},{"dx":110,"dy":-100,"t":25532},{"dx":66,"dy":-86,"t":25572},{"dx":63,"dy":-79,"t":25602},{"dx":-12,"dy":-87,"t":25642},{"dx":-43,"dy":-89,"t":25671},{"dx":-49,"dy":-103,"t":25710},{"dx":-53,"dy":-103,"t":25742},{"dx":1,"dy":-97,"t":25782},{"dx":37,"dy":-91,"t":25811},{"dx":23,"dy":-30,"t":25852},{"dx":23,"dy":-3,"t":25882},{"dx":21,"dy":-27,"t":25923},{"dx":12,"dy":-39,"t":25952},{"dx":-52,"dy":-67,"t":25993},{"dx":-53,"dy":-77,"t":26023},{"dx":-21,"dy":-100,"t":26062},{"dx":-11,"dy":-106,"t":26092},{"dx":-37,"dy":-100,"t":26132},{"dx":-39,"dy":-87,"t":26162},{"dx":3,"dy":-73,"t":26202},{"dx":42,"dy":-61,"t":26232},{"dx":70,"dy":-63,"t":26271},{"dx":52,"dy":-68,"t":26299},{"dx":84,"dy":-61,"t":26338},{"dx":121,"dy":-57,"t":26369},{"dx":115,"dy":-74,"t":26410},{"dx":113,"dy":-89,"t":26440},{"dx":91,"dy":-93,"t":26481},{"dx":48,"dy":-98,"t":26524},{"dx":74,"dy":-98,"t":26588},{"dx":89,"dy":-92,"t":26615},{"dx":53,"dy":-91,"t":26654},{"dx":16,"dy":-86,"t":26684},{"dx":-1,"dy":-117,"t":26723},{"dx":-28,"dy":-131,"t":26754},{"dx":-15,"dy":-131,"t":26794},{"dx":-48,"dy":-98,"t":26831},{"dx":-12,"dy":-97,"t":26880},{"dx":-10,"dy":-96,"t":26911},{"dx":-86,"dy":-96,"t":26951},{"dx":-66,"dy":-117,"t":26982},{"dx":-46,"dy":-123,"t":27021},{"dx":-32,"dy":-119,"t":27051},{"dx":13,"dy":-107,"t":27096},{"dx":18,"dy":-95,"t":27124},{"dx":42,"dy":-111,"t":27168},{"dx":42,"dy":-113,"t":27179}],[{"dx":-143,"dy":-137,"t":28178},{"dx":-127,"dy":-159,"t":28240},{"dx":-132,"dy":-181,"t":28269},{"dx":-92,"dy":-182,"t":28308},{"dx":-63,"dy":-192,"t":28337},{"dx":-67,"dy":-213,"t":28375},{"dx":-72,"dy":-215,"t":28404},{"dx":-56,"dy":-188,"t":28446},{"dx":-56,"dy":-181,"t":28475},{"dx":-69,"dy":-189,"t":28517},{"dx":-85,"dy":-200,"t":28546},{"dx":-165,"dy":-160,"t":28587},{"dx":-166,"dy":-146,"t":28616},{"dx":-128,"dy":-129,"t":28655},{"dx":-84,"dy":-121,"t":28687},{"dx":-79,"dy":-143,"t":28731},{"dx":-95,"dy":-141,"t":28760},{"dx":-89,"dy":-170,"t":28801},{"dx":-71,"dy":-197,"t":28831},{"dx":-11,"dy":-237,"t":28870},{"dx":-11,"dy":-249,"t":28899},{"dx":-60,"dy":-210,"t":28940},{"dx":-82,"dy":-201,"t":28981},{"dx":-119,"dy":-199,"t":29022},{"dx":-137,"dy":-210,"t":29051},{"dx":-126,"dy":-205,"t":29090},{"dx":-110,"dy":-208,"t":29119},{"dx":-120,"dy":-193,"t":29187},{"dx":-139,"dy":-157,"t":29216},{"dx":-116,"dy":-163,"t":29257},{"dx":-95,"dy":-160,"t":29285},{"dx":-66,"dy":-174,"t":29324},{"dx":-58,"dy":-188,"t":29353},{"dx":-35,"dy":-211,"t":29391},{"dx":-17,"dy":-212,"t":29420},{"dx":-90,"dy":-217,"t":29459},{"dx":-129,"dy":-224,"t":29492},{"dx":-104,"dy":-201,"t":29533},{"dx":-78,"dy":-202,"t":29563},{"dx":-87,"dy":-213,"t":29602},{"dx":-92,"dy":-218,"t":29632},{"dx":-97,"dy":-222,"t":29671},{"dx":-99,"dy":-222,"t":29700},{"dx":-134,"dy":-224,"t":29740},{"dx":-155,"dy":-231,"t":29769},{"dx":-139,"dy":-240,"t":29809},{"dx":-134,"dy":-246,"t":29838},{"dx":-136,"dy":-213,"t":29879},{"dx":-150,"dy":-196,"t":29907},{"dx":-125,"dy":-169,"t":29948},{"dx":-120,"dy":-159,"t":29981},{"dx":-130,"dy":-153,"t":30030},{"dx":-140,"dy":-152,"t":30059},{"dx":-157,"dy":-165,"t":30097},{"dx":-162,"dy":-179,"t":30126},{"dx":-146,"dy":-182,"t":30172},{"dx":-125,"dy":-165,"t":30185}],[{"dx":-626,"dy":-113,"t":31200},{"dx":-600,"dy":-132,"t":31229},{"dx":-596,"dy":-150,"t":31270},{"dx":-609,"dy":-167,"t":31301},{"dx":-592,"dy":-174,"t":31344},{"dx":-564,"dy":-176,"t":31376},{"dx":-576,"dy":-158,"t":31423},{"dx":-546,"dy":-163,"t":31452},{"dx":-531,"dy":-184,"t":31491},{"dx":-517,"dy":-172,"t":31522},{"dx":-481,"dy":-153,"t":31562},{"dx":-487,"dy":-149,"t":31592},{"dx":-501,"dy":-186,"t":31632},{"dx":-477,"dy":-184,"t":31662},{"dx":-428,"dy":-227,"t":31701},{"dx":-392,"dy":-238,"t":31730},{"dx":-408,"dy":-177,"t":31768},{"dx":-424,"dy":-164,"t":31797},{"dx":-483,"dy":-135,"t":31835},{"dx":-501,"dy":-113,"t":31863},{"dx":-526,"dy":-124,"t":31909},{"dx":-522,"dy":-143,"t":31941},{"dx":-543,"dy":-164,"t":31982},{"dx":-547,"dy":-173,"t":32011},{"dx":-556,"dy":-161,"t":32050},{"dx":-547,"dy":-151,"t":32080},{"dx":-528,"dy":-139,"t":32120},{"dx":-539,"dy":-124,"t":32150},{"dx":-554,"dy":-148,"t":32189},{"dx":-567,"dy":-156,"t":32221},{"dx":-563,"dy":-174,"t":32300},{"dx":-539,"dy":-186,"t":32326},{"dx":-547,"dy":-182,"t":32366},{"dx":-525,"dy":-182,"t":32396},{"dx":-496,"dy":-159,"t":32435},{"dx":-496,"dy":-134,"t":32468},{"dx":-440,"dy":-152,"t":32508},{"dx":-410,"dy":-170,"t":32537},{"dx":-480,"dy":-163,"t":32577},{"dx":-531,"dy":-152,"t":32607},{"dx":-570,"dy":-132,"t":32646},{"dx":-587,"dy":-121,"t":32676},{"dx":-552,"dy":-118,"t":32717},{"dx":-533,"dy":-119,"t":32746},{"dx":-514,"dy":-96,"t":32785},{"dx":-512,"dy":-88,"t":32814},{"dx":-510,"dy":-161,"t":32854},{"dx":-542,"dy":-184,"t":32883},{"dx":-561,"dy":-198,"t":32923},{"dx":-596,"dy":-176,"t":32952},{"dx":-551,"dy":-182,"t":32991},{"dx":-556,"dy":-179,"t":33020},{"dx":-493,"dy":-196,"t":33058},{"dx":-490,"dy":-211,"t":33089},{"dx":-537,"dy":-182,"t":33128},{"dx":-543,"dy":-172,"t":33157},{"dx":-528,"dy":-200,"t":33201},{"dx":-522,"dy":-209,"t":33213}],[{"dx":-680,"dy":-203,"t":34207},{"dx":-683,"dy":-202,"t":34268},{"dx":-663,"dy":-208,"t":34297},{"dx":-647,"dy":-212,"t":34337},{"dx":-680,"dy":-216,"t":34366},{"dx":-701,"dy":-227,"t":34406},{"dx":-682,"dy":-237,"t":34435},{"dx":-663,"dy":-211,"t":34475},{"dx":-656,"dy":-194,"t":34503},{"dx":-575,"dy":-189,"t":34543},{"dx":-544,"dy":-197,"t":34571},{"dx":-570,"dy":-194,"t":34610},{"dx":-557,"dy":-203,"t":34639},{"dx":-604,"dy":-185,"t":34680},{"dx":-632,"dy":-167,"t":34708},{"dx":-651,"dy":-187,"t":34749},{"dx":-669,"dy":-202,"t":34779},{"dx":-660,"dy":-199,"t":34823},{"dx":-652,"dy":-193,"t":34854},{"dx":-665,"dy":-192,"t":34896},{"dx":-668,"dy":-213,"t":34923},{"dx":-659,"dy":-249,"t":34961},{"dx":-633,"dy":-253,"t":34990},{"dx":-626,"dy":-269,"t":35030},{"dx":-642,"dy":-277,"t":35059},{"dx":-708,"dy":-244,"t":35099},{"dx":-734,"dy":-228,"t":35128},{"dx":-718,"dy":-204,"t":35167},{"dx":-699,"dy":-202,"t":35196},{"dx":-696,"dy":-192,"t":35239},{"dx":-700,"dy":-189,"t":35268},{"dx":-687,"dy":-185,"t":35307},{"dx":-691,"dy":-187,"t":35336},{"dx":-677,"dy":-212,"t":35375},{"dx":-670,"dy":-223,"t":35404},{"dx":-673,"dy":-206,"t":35444},{"dx":-664,"dy":-194,"t":35473},{"dx":-693,"dy":-189,"t":35513},{"dx":-686,"dy":-186,"t":35542},{"dx":-658,"dy":-197,"t":35582},{"dx":-653,"dy":-205,"t":35618},{"dx":-605,"dy":-244,"t":35658},{"dx":-604,"dy":-247,"t":35687},{"dx":-606,"dy":-230,"t":35726},{"dx":-650,"dy":-219,"t":35753},{"dx":-667,"dy":-217,"t":35793},{"dx":-693,"dy":-214,"t":35827},{"dx":-670,"dy":-229,"t":35868},{"dx":-643,"dy":-234,"t":35899},{"dx":-653,"dy":-221,"t":35943},{"dx":-672,"dy":-206,"t":35973},{"dx":-681,"dy":-173,"t":36013},{"dx":-670,"dy":-146,"t":36047},{"dx":-635,"dy":-139,"t":36087},{"dx":-647,"dy":-141,"t":36119},{"dx":-668,"dy":-167,"t":36162},{"dx":-679,"dy":-189,"t":36197},{"dx":-705,"dy":-207,"t":36223}],[{"dx":87,"dy":-36,"t":37206},{"dx":116,"dy":-62,"t":37268},{"dx":134,"dy":-72,"t":37298},{"dx":167,"dy":-81,"t":37338},{"dx":177,"dy":-76,"t":37368},{"dx":167,"dy":-56,"t":37411},{"dx":171,"dy":-63,"t":37443},{"dx":150,"dy":-34,"t":37482},{"dx":127,"dy":-13,"t":37514},{"dx":168,"dy":-8,"t":37553},{"dx":197,"dy":-1,"t":37585},{"dx":127,"dy":19,"t":37633},{"dx":71,"dy":26,"t":37664},{"dx":107,"dy":23,"t":37710},{"dx":109,"dy":31,"t":37738},{"dx":47,"dy":19,"t":37778},{"dx":16,"dy":23,"t":37815},{"dx":35,"dy":25,"t":37894},{"dx":34,"dy":16,"t":37921},{"dx":61,"dy":12,"t":37961},{"dx":51,"dy":8,"t":37997},{"dx":106,"dy":4,"t":38038},{"dx":144,"dy":-5,"t":38067},{"dx":147,"dy":-19,"t":38106},{"dx":145,"dy":-20,"t":38136},{"dx":74,"dy":-35,"t":38177},{"dx":49,"dy":-41,"t":38206},{"dx":-37,"dy":5,"t":38247},{"dx":-104,"dy":43,"t":38276},{"dx":-215,"dy":124,"t":38317},{"dx":-246,"dy":157,"t":38347},{"dx":-210,"dy":189,"t":38388},{"dx":-182,"dy":182,"t":38417},{"dx":-153,"dy":148,"t":38459},{"dx":-97,"dy":109,"t":38488},{"dx":-86,"dy":96,"t":38527},{"dx":-58,"dy":77,"t":38557},{"dx":-16,"dy":48,"t":38597},{"dx":-26,"dy":36,"t":38626},{"dx":-3,"dy":-20,"t":38667},{"dx":26,"dy":-40,"t":38695},{"dx":35,"dy":-50,"t":38735},{"dx":55,"dy":-52,"t":38764},{"dx":24,"dy":-33,"t":38802},{"dx":-7,"dy":-24,"t":38831},{"dx":-16,"dy":5,"t":38870},{"dx":-15,"dy":22,"t":38898},{"dx":27,"dy":-14,"t":38937},{"dx":56,"dy":-27,"t":38986},{"dx":76,"dy":-19,"t":39025},{"dx":126,"dy":-27,"t":39054},{"dx":69,"dy":-21,"t":39122},{"dx":36,"dy":-7,"t":39152},{"dx":37,"dy":-9,"t":39196}]],"percent_in_roi":[84.7457627118644,8.620689655172415,72.41379310344827,0,8.47457627118644,1.7241379310344827,33.33333333333333,30.508474576271187,100,1.7543859649122806,0,0,75.92592592592592],"average_offset":[{"x":-9.88135593220339,"y":4.1525423728813555,"r":71.4133590728298},{"x":-131.18965517241378,"y":-125.05172413793103,"r":155.8442316594635},{"x":-75.91379310344827,"y":-95.05172413793103,"r":94.02586296755689},{"x":185.3050847457627,"y":113.28813559322033,"r":29.336848417874815},{"x":-167.16949152542372,"y":122.23728813559322,"r":48.38178270220376},{"x":42.86206896551724,"y":-186.44827586206895,"r":55.6465758220086},{"x":-86.36842105263158,"y":-137.26315789473685,"r":55.53230199709852},{"x":-169.28813559322035,"y":22.135593220338983,"r":42.716642858878885},{"x":18,"y":-89.28070175438596,"r":50.63742656290415},{"x":-102.98245614035088,"y":-189.71929824561403,"r":40.39986728567959},{"x":-525.7241379310345,"y":-161.6551724137931,"r":61.70634557161313},{"x":-658.9137931034483,"y":-205.94827586206895,"r":53.66976044571566},{"x":38.51851851851852,"y":8.925925925925926,"r":104.8971937856256}],"samples_per_sec":"28.27","clicks":5,"pattern":"spread","trial_type":"webgazer-validate","trial_index":25,"time_elapsed":280023,"internal_node_id":"0.0-10.0-3.2","validation_points":[[62.5,37.5],[62.5,62.5],[50,50],[15,15],[85,15],[15,85],[25,75],[75,25],[37.5,37.5],[37.5,62.5],[75,75],[85,85],[25,25]],"user_agent":"Mozilla/5.0 (Windows NT 10.0; Win64; x64) AppleWebKit/537.36 (KHTML, like Gecko) Chrome/88.0.4324.190 Safari/537.36","screen_width_px":1280,"screen_height_px":720},{"rt":2287.9249999999884,"stimulus":"\n      <p>Round complete.</p>\n      <p>You can move a little bit, but please try to return you head to the same general location before continuing.</p>\n    ","response":0,"trial_type":"html-button-response","trial_index":26,"time_elapsed":282313,"internal_node_id":"0.0-10.0-4.2","user_agent":"Mozilla/5.0 (Windows NT 10.0; Win64; x64) AppleWebKit/537.36 (KHTML, like Gecko) Chrome/88.0.4324.190 Safari/537.36","screen_width_px":1280,"screen_height_px":720},{"trial_type":"webgazer-init-camera","trial_index":27,"time_elapsed":290714,"internal_node_id":"0.0-10.0-5.2","user_agent":"Mozilla/5.0 (Windows NT 10.0; Win64; x64) AppleWebKit/537.36 (KHTML, like Gecko) Chrome/88.0.4324.190 Safari/537.36","screen_width_px":1280,"screen_height_px":720},{"rt":1108.7499999999418,"stimulus":"\n      <p>Calibration phase next.</p>\n      <p>Click on the dots.</p>\n    ","response":0,"trial_type":"html-button-response","trial_index":28,"time_elapsed":291824,"internal_node_id":"0.0-10.0-0.3","user_agent":"Mozilla/5.0 (Windows NT 10.0; Win64; x64) AppleWebKit/537.36 (KHTML, like Gecko) Chrome/88.0.4324.190 Safari/537.36","screen_width_px":1280,"screen_height_px":720},{"trial_type":"webgazer-calibrate","trial_index":29,"time_elapsed":316848,"internal_node_id":"0.0-10.0-1.3","user_agent":"Mozilla/5.0 (Windows NT 10.0; Win64; x64) AppleWebKit/537.36 (KHTML, like Gecko) Chrome/88.0.4324.190 Safari/537.36","screen_width_px":1280,"screen_height_px":720},{"rt":1213.5849999999627,"stimulus":"\n      <p>Validation phase next.</p>\n      <p>Look at the dots.</p>\n    ","response":0,"trial_type":"html-button-response","trial_index":30,"time_elapsed":318063,"internal_node_id":"0.0-10.0-2.3","user_agent":"Mozilla/5.0 (Windows NT 10.0; Win64; x64) AppleWebKit/537.36 (KHTML, like Gecko) Chrome/88.0.4324.190 Safari/537.36","screen_width_px":1280,"screen_height_px":720},{"raw_gaze":[[{"dx":1,"dy":5,"t":1047},{"dx":7,"dy":-44,"t":1111},{"dx":23,"dy":-112,"t":1143},{"dx":-4,"dy":-174,"t":1188},{"dx":-14,"dy":-186,"t":1220},{"dx":29,"dy":-102,"t":1260},{"dx":9,"dy":-42,"t":1290},{"dx":41,"dy":-99,"t":1331},{"dx":48,"dy":-174,"t":1364},{"dx":50,"dy":-133,"t":1412},{"dx":95,"dy":-152,"t":1440},{"dx":-28,"dy":-88,"t":1479},{"dx":-54,"dy":-64,"t":1507},{"dx":2,"dy":-99,"t":1549},{"dx":-12,"dy":-78,"t":1579},{"dx":-7,"dy":-31,"t":1618},{"dx":-3,"dy":-17,"t":1650},{"dx":8,"dy":-7,"t":1688},{"dx":10,"dy":-24,"t":1720},{"dx":-11,"dy":0,"t":1763},{"dx":-45,"dy":-18,"t":1793},{"dx":-58,"dy":-26,"t":1833},{"dx":-25,"dy":-33,"t":1863},{"dx":-28,"dy":2,"t":1901},{"dx":-41,"dy":-13,"t":1930},{"dx":-72,"dy":-23,"t":1974},{"dx":-80,"dy":-43,"t":2005},{"dx":-12,"dy":-50,"t":2044},{"dx":21,"dy":-28,"t":2079},{"dx":79,"dy":-36,"t":2120},{"dx":30,"dy":1,"t":2150},{"dx":40,"dy":-16,"t":2191},{"dx":58,"dy":-40,"t":2221},{"dx":110,"dy":-41,"t":2263},{"dx":122,"dy":-37,"t":2293},{"dx":108,"dy":-48,"t":2332},{"dx":95,"dy":-68,"t":2362},{"dx":34,"dy":-80,"t":2403},{"dx":10,"dy":-70,"t":2433},{"dx":-15,"dy":-29,"t":2473},{"dx":-33,"dy":-17,"t":2503},{"dx":54,"dy":-27,"t":2542},{"dx":115,"dy":-71,"t":2571},{"dx":55,"dy":-121,"t":2611},{"dx":-46,"dy":-135,"t":2644},{"dx":-134,"dy":-92,"t":2684},{"dx":-171,"dy":-69,"t":2713},{"dx":-207,"dy":-73,"t":2752},{"dx":-154,"dy":-83,"t":2790},{"dx":-61,"dy":-75,"t":2830},{"dx":-14,"dy":-68,"t":2858},{"dx":-2,"dy":-30,"t":2899},{"dx":-4,"dy":-2,"t":2931},{"dx":64,"dy":-27,"t":2970},{"dx":113,"dy":-34,"t":2999},{"dx":137,"dy":-45,"t":3042},{"dx":77,"dy":-46,"t":3056}],[{"dx":-28,"dy":-64,"t":4069},{"dx":-49,"dy":-78,"t":4098},{"dx":57,"dy":-102,"t":4140},{"dx":75,"dy":-100,"t":4170},{"dx":58,"dy":-117,"t":4211},{"dx":60,"dy":-140,"t":4249},{"dx":39,"dy":-207,"t":4304},{"dx":68,"dy":-223,"t":4332},{"dx":35,"dy":-188,"t":4373},{"dx":1,"dy":-170,"t":4405},{"dx":-77,"dy":-154,"t":4449},{"dx":-57,"dy":-102,"t":4479},{"dx":-115,"dy":-78,"t":4520},{"dx":-124,"dy":-87,"t":4550},{"dx":-215,"dy":-112,"t":4590},{"dx":-280,"dy":-128,"t":4619},{"dx":-139,"dy":-103,"t":4659},{"dx":-126,"dy":-123,"t":4692},{"dx":-104,"dy":-124,"t":4732},{"dx":-85,"dy":-125,"t":4761},{"dx":46,"dy":-128,"t":4800},{"dx":49,"dy":-124,"t":4828},{"dx":-38,"dy":-105,"t":4867},{"dx":-112,"dy":-119,"t":4895},{"dx":-32,"dy":-96,"t":4934},{"dx":-51,"dy":-84,"t":4963},{"dx":-25,"dy":-71,"t":5005},{"dx":-19,"dy":-94,"t":5035},{"dx":-22,"dy":-94,"t":5075},{"dx":-57,"dy":-69,"t":5106},{"dx":-127,"dy":-78,"t":5147},{"dx":-141,"dy":-90,"t":5177},{"dx":-148,"dy":-93,"t":5218},{"dx":-132,"dy":-47,"t":5248},{"dx":-163,"dy":-91,"t":5288},{"dx":-159,"dy":-106,"t":5317},{"dx":-154,"dy":-95,"t":5356},{"dx":-165,"dy":-98,"t":5386},{"dx":-179,"dy":-122,"t":5426},{"dx":-108,"dy":-120,"t":5456},{"dx":-114,"dy":-137,"t":5495},{"dx":-117,"dy":-146,"t":5525},{"dx":-76,"dy":-131,"t":5564},{"dx":-56,"dy":-117,"t":5593},{"dx":-7,"dy":-83,"t":5634},{"dx":-18,"dy":-106,"t":5663},{"dx":-74,"dy":-86,"t":5703},{"dx":-106,"dy":-92,"t":5733},{"dx":-135,"dy":-103,"t":5774},{"dx":-186,"dy":-153,"t":5804},{"dx":-123,"dy":-136,"t":5847},{"dx":-143,"dy":-145,"t":5876},{"dx":-113,"dy":-136,"t":5916},{"dx":-137,"dy":-107,"t":5945},{"dx":-94,"dy":-60,"t":5985},{"dx":-73,"dy":-60,"t":6015},{"dx":1,"dy":-95,"t":6063},{"dx":10,"dy":-97,"t":6076}],[{"dx":-197,"dy":-13,"t":7084},{"dx":-192,"dy":-11,"t":7115},{"dx":-178,"dy":-57,"t":7159},{"dx":-155,"dy":-96,"t":7193},{"dx":-198,"dy":-113,"t":7234},{"dx":-231,"dy":-142,"t":7268},{"dx":-218,"dy":-123,"t":7317},{"dx":-147,"dy":-121,"t":7350},{"dx":-104,"dy":-153,"t":7392},{"dx":-114,"dy":-175,"t":7426},{"dx":-50,"dy":-201,"t":7466},{"dx":12,"dy":-206,"t":7495},{"dx":25,"dy":-162,"t":7536},{"dx":-8,"dy":-138,"t":7570},{"dx":-53,"dy":-91,"t":7609},{"dx":-55,"dy":-87,"t":7640},{"dx":-114,"dy":-149,"t":7677},{"dx":-117,"dy":-168,"t":7707},{"dx":-83,"dy":-203,"t":7749},{"dx":-52,"dy":-227,"t":7779},{"dx":-66,"dy":-211,"t":7819},{"dx":-80,"dy":-202,"t":7849},{"dx":-58,"dy":-159,"t":7889},{"dx":-55,"dy":-87,"t":7919},{"dx":-29,"dy":-75,"t":7960},{"dx":5,"dy":-72,"t":7989},{"dx":-15,"dy":-95,"t":8031},{"dx":-45,"dy":-116,"t":8060},{"dx":-64,"dy":-126,"t":8100},{"dx":-13,"dy":-152,"t":8130},{"dx":-48,"dy":-155,"t":8171},{"dx":-30,"dy":-176,"t":8201},{"dx":27,"dy":-192,"t":8241},{"dx":43,"dy":-197,"t":8272},{"dx":72,"dy":-166,"t":8311},{"dx":35,"dy":-181,"t":8342},{"dx":28,"dy":-104,"t":8398},{"dx":30,"dy":-93,"t":8430},{"dx":35,"dy":-134,"t":8473},{"dx":-12,"dy":-135,"t":8507},{"dx":57,"dy":-150,"t":8556},{"dx":68,"dy":-161,"t":8586},{"dx":24,"dy":-95,"t":8626},{"dx":15,"dy":-70,"t":8660},{"dx":-44,"dy":-15,"t":8699},{"dx":-9,"dy":-37,"t":8729},{"dx":6,"dy":-99,"t":8772},{"dx":1,"dy":-122,"t":8802},{"dx":17,"dy":-112,"t":8843},{"dx":16,"dy":-91,"t":8873},{"dx":112,"dy":-83,"t":8914},{"dx":80,"dy":-85,"t":8943},{"dx":72,"dy":-115,"t":8983},{"dx":48,"dy":-109,"t":9013},{"dx":52,"dy":-89,"t":9053},{"dx":70,"dy":-91,"t":9086},{"dx":27,"dy":-143,"t":9114}],[{"dx":-199,"dy":-44,"t":10092},{"dx":-150,"dy":-116,"t":10155},{"dx":-161,"dy":-156,"t":10185},{"dx":-129,"dy":-178,"t":10227},{"dx":-146,"dy":-183,"t":10259},{"dx":-191,"dy":-168,"t":10299},{"dx":-254,"dy":-142,"t":10327},{"dx":-268,"dy":-142,"t":10375},{"dx":-227,"dy":-127,"t":10403},{"dx":-224,"dy":-128,"t":10444},{"dx":-247,"dy":-122,"t":10474},{"dx":-232,"dy":-99,"t":10514},{"dx":-234,"dy":-97,"t":10544},{"dx":-153,"dy":-115,"t":10585},{"dx":-125,"dy":-114,"t":10615},{"dx":-140,"dy":-91,"t":10657},{"dx":-118,"dy":-104,"t":10687},{"dx":-117,"dy":-140,"t":10728},{"dx":-117,"dy":-140,"t":10758},{"dx":-150,"dy":-123,"t":10798},{"dx":-220,"dy":-143,"t":10828},{"dx":-164,"dy":-146,"t":10869},{"dx":-184,"dy":-184,"t":10899},{"dx":-127,"dy":-173,"t":10940},{"dx":-108,"dy":-148,"t":10970},{"dx":-123,"dy":-167,"t":11008},{"dx":-139,"dy":-190,"t":11038},{"dx":-119,"dy":-135,"t":11080},{"dx":-91,"dy":-117,"t":11110},{"dx":-46,"dy":-79,"t":11150},{"dx":-41,"dy":-77,"t":11179},{"dx":-66,"dy":-57,"t":11222},{"dx":-74,"dy":-59,"t":11251},{"dx":-196,"dy":-87,"t":11292},{"dx":-276,"dy":-100,"t":11323},{"dx":-332,"dy":-78,"t":11364},{"dx":-334,"dy":-51,"t":11394},{"dx":-257,"dy":-105,"t":11434},{"dx":-200,"dy":-144,"t":11462},{"dx":-216,"dy":-152,"t":11503},{"dx":-179,"dy":-160,"t":11532},{"dx":-211,"dy":-124,"t":11572},{"dx":-210,"dy":-107,"t":11601},{"dx":-194,"dy":-115,"t":11644},{"dx":-156,"dy":-100,"t":11673},{"dx":-165,"dy":-85,"t":11712},{"dx":-128,"dy":-97,"t":11742},{"dx":-148,"dy":-80,"t":11783},{"dx":-151,"dy":-86,"t":11813},{"dx":-145,"dy":-85,"t":11853},{"dx":-162,"dy":-83,"t":11883},{"dx":-131,"dy":-98,"t":11925},{"dx":-93,"dy":-100,"t":11955},{"dx":-76,"dy":-99,"t":11995},{"dx":-125,"dy":-111,"t":12025},{"dx":-122,"dy":-117,"t":12067},{"dx":-141,"dy":-124,"t":12101},{"dx":-172,"dy":-102,"t":12129}],[{"dx":-24,"dy":-105,"t":13123},{"dx":-15,"dy":-110,"t":13162},{"dx":-16,"dy":-134,"t":13192},{"dx":-61,"dy":-181,"t":13231},{"dx":-68,"dy":-177,"t":13262},{"dx":-99,"dy":-174,"t":13301},{"dx":-133,"dy":-196,"t":13330},{"dx":-131,"dy":-172,"t":13384},{"dx":-92,"dy":-149,"t":13412},{"dx":-55,"dy":-120,"t":13453},{"dx":-3,"dy":-116,"t":13487},{"dx":-37,"dy":-80,"t":13526},{"dx":-85,"dy":-43,"t":13556},{"dx":-105,"dy":-60,"t":13597},{"dx":-112,"dy":-77,"t":13626},{"dx":-218,"dy":-126,"t":13667},{"dx":-224,"dy":-121,"t":13697},{"dx":-217,"dy":-150,"t":13737},{"dx":-214,"dy":-165,"t":13766},{"dx":-84,"dy":-137,"t":13807},{"dx":-65,"dy":-103,"t":13837},{"dx":-57,"dy":-147,"t":13875},{"dx":-78,"dy":-159,"t":13905},{"dx":-94,"dy":-155,"t":13945},{"dx":-98,"dy":-141,"t":13975},{"dx":-76,"dy":-144,"t":14016},{"dx":-60,"dy":-151,"t":14046},{"dx":-99,"dy":-162,"t":14088},{"dx":-131,"dy":-161,"t":14119},{"dx":-57,"dy":-132,"t":14161},{"dx":-60,"dy":-113,"t":14191},{"dx":-164,"dy":-118,"t":14230},{"dx":-193,"dy":-125,"t":14260},{"dx":-204,"dy":-121,"t":14300},{"dx":-166,"dy":-129,"t":14330},{"dx":-136,"dy":-112,"t":14370},{"dx":-73,"dy":-105,"t":14400},{"dx":-62,"dy":-77,"t":14441},{"dx":-71,"dy":-99,"t":14470},{"dx":-175,"dy":-133,"t":14510},{"dx":-227,"dy":-177,"t":14541},{"dx":-199,"dy":-193,"t":14582},{"dx":-159,"dy":-203,"t":14612},{"dx":-75,"dy":-179,"t":14654},{"dx":-159,"dy":-173,"t":14684},{"dx":-140,"dy":-150,"t":14724},{"dx":-117,"dy":-145,"t":14754},{"dx":-196,"dy":-171,"t":14795},{"dx":-294,"dy":-193,"t":14828},{"dx":-383,"dy":-191,"t":14868},{"dx":-352,"dy":-163,"t":14900},{"dx":-313,"dy":-164,"t":14944},{"dx":-285,"dy":-154,"t":14977},{"dx":-166,"dy":-185,"t":15020},{"dx":-149,"dy":-199,"t":15050},{"dx":-114,"dy":-207,"t":15090},{"dx":-94,"dy":-163,"t":15121},{"dx":-44,"dy":-126,"t":15149}],[{"dx":-183,"dy":-141,"t":16133},{"dx":-246,"dy":-169,"t":16196},{"dx":-279,"dy":-179,"t":16224},{"dx":-283,"dy":-200,"t":16264},{"dx":-291,"dy":-210,"t":16293},{"dx":-159,"dy":-144,"t":16332},{"dx":-92,"dy":-95,"t":16363},{"dx":-71,"dy":-100,"t":16412},{"dx":-160,"dy":-112,"t":16442},{"dx":-107,"dy":-103,"t":16483},{"dx":-98,"dy":-127,"t":16513},{"dx":-87,"dy":-99,"t":16555},{"dx":-76,"dy":-92,"t":16585},{"dx":-89,"dy":-72,"t":16625},{"dx":-123,"dy":-87,"t":16655},{"dx":-244,"dy":-81,"t":16694},{"dx":-303,"dy":-53,"t":16724},{"dx":-341,"dy":-76,"t":16766},{"dx":-348,"dy":-87,"t":16796},{"dx":-302,"dy":-101,"t":16839},{"dx":-258,"dy":-103,"t":16868},{"dx":-229,"dy":-81,"t":16906},{"dx":-262,"dy":-71,"t":16937},{"dx":-302,"dy":-65,"t":16977},{"dx":-309,"dy":-58,"t":17006},{"dx":-269,"dy":-61,"t":17046},{"dx":-274,"dy":-63,"t":17078},{"dx":-250,"dy":-104,"t":17117},{"dx":-184,"dy":-111,"t":17151},{"dx":-236,"dy":-132,"t":17196},{"dx":-213,"dy":-112,"t":17225},{"dx":-237,"dy":-146,"t":17265},{"dx":-245,"dy":-169,"t":17297},{"dx":-216,"dy":-162,"t":17336},{"dx":-212,"dy":-160,"t":17367},{"dx":-203,"dy":-151,"t":17405},{"dx":-203,"dy":-127,"t":17433},{"dx":-287,"dy":-120,"t":17473},{"dx":-330,"dy":-124,"t":17502},{"dx":-306,"dy":-80,"t":17542},{"dx":-334,"dy":-69,"t":17571},{"dx":-342,"dy":-79,"t":17610},{"dx":-330,"dy":-97,"t":17640},{"dx":-266,"dy":-110,"t":17680},{"dx":-245,"dy":-114,"t":17713},{"dx":-151,"dy":-116,"t":17755},{"dx":-146,"dy":-133,"t":17785},{"dx":-184,"dy":-128,"t":17824},{"dx":-243,"dy":-135,"t":17854},{"dx":-179,"dy":-107,"t":17896},{"dx":-122,"dy":-97,"t":17928},{"dx":-137,"dy":-106,"t":17972},{"dx":-240,"dy":-132,"t":18002},{"dx":-375,"dy":-151,"t":18042},{"dx":-413,"dy":-147,"t":18071},{"dx":-288,"dy":-118,"t":18112},{"dx":-228,"dy":-109,"t":18143},{"dx":-224,"dy":-135,"t":18171}],[{"dx":-5,"dy":-54,"t":19172},{"dx":8,"dy":-84,"t":19212},{"dx":40,"dy":-130,"t":19244},{"dx":30,"dy":-153,"t":19284},{"dx":72,"dy":-171,"t":19313},{"dx":55,"dy":-173,"t":19355},{"dx":51,"dy":-197,"t":19384},{"dx":128,"dy":-241,"t":19427},{"dx":105,"dy":-245,"t":19457},{"dx":93,"dy":-279,"t":19497},{"dx":113,"dy":-287,"t":19526},{"dx":44,"dy":-279,"t":19567},{"dx":-9,"dy":-260,"t":19599},{"dx":-43,"dy":-261,"t":19639},{"dx":-44,"dy":-247,"t":19669},{"dx":-59,"dy":-225,"t":19708},{"dx":-59,"dy":-208,"t":19739},{"dx":-46,"dy":-183,"t":19780},{"dx":-25,"dy":-157,"t":19810},{"dx":50,"dy":-150,"t":19850},{"dx":34,"dy":-146,"t":19880},{"dx":-47,"dy":-151,"t":19918},{"dx":-94,"dy":-157,"t":19947},{"dx":-185,"dy":-215,"t":19986},{"dx":-218,"dy":-218,"t":20016},{"dx":-188,"dy":-183,"t":20055},{"dx":-226,"dy":-165,"t":20084},{"dx":-151,"dy":-146,"t":20124},{"dx":-84,"dy":-130,"t":20152},{"dx":-36,"dy":-103,"t":20192},{"dx":-35,"dy":-80,"t":20224},{"dx":-52,"dy":-98,"t":20266},{"dx":-35,"dy":-127,"t":20296},{"dx":-65,"dy":-154,"t":20336},{"dx":-39,"dy":-168,"t":20365},{"dx":-122,"dy":-155,"t":20406},{"dx":-183,"dy":-147,"t":20436},{"dx":-166,"dy":-137,"t":20476},{"dx":-200,"dy":-145,"t":20505},{"dx":-233,"dy":-194,"t":20545},{"dx":-203,"dy":-213,"t":20575},{"dx":-160,"dy":-168,"t":20617},{"dx":-168,"dy":-137,"t":20647},{"dx":-183,"dy":-129,"t":20686},{"dx":-191,"dy":-120,"t":20716},{"dx":-151,"dy":-161,"t":20756},{"dx":-76,"dy":-192,"t":20786},{"dx":-59,"dy":-212,"t":20827},{"dx":-43,"dy":-211,"t":20857},{"dx":-61,"dy":-186,"t":20897},{"dx":-39,"dy":-198,"t":20927},{"dx":16,"dy":-209,"t":20970},{"dx":60,"dy":-224,"t":21001},{"dx":-6,"dy":-203,"t":21043},{"dx":-5,"dy":-215,"t":21074},{"dx":-37,"dy":-159,"t":21116},{"dx":-65,"dy":-153,"t":21158},{"dx":-89,"dy":-158,"t":21225}],[{"dx":-199,"dy":-45,"t":22196},{"dx":-271,"dy":-36,"t":22226},{"dx":-324,"dy":-51,"t":22266},{"dx":-333,"dy":-54,"t":22295},{"dx":-330,"dy":-75,"t":22334},{"dx":-313,"dy":-69,"t":22364},{"dx":-251,"dy":-30,"t":22405},{"dx":-247,"dy":-34,"t":22435},{"dx":-221,"dy":-99,"t":22474},{"dx":-215,"dy":-128,"t":22504},{"dx":-139,"dy":-146,"t":22543},{"dx":-88,"dy":-150,"t":22574},{"dx":-1,"dy":-79,"t":22615},{"dx":-14,"dy":-91,"t":22643},{"dx":-61,"dy":-121,"t":22683},{"dx":-74,"dy":-130,"t":22714},{"dx":-146,"dy":-111,"t":22753},{"dx":-187,"dy":-128,"t":22787},{"dx":-291,"dy":-65,"t":22840},{"dx":-292,"dy":-23,"t":22869},{"dx":-224,"dy":-13,"t":22909},{"dx":-177,"dy":-23,"t":22938},{"dx":-135,"dy":-25,"t":22977},{"dx":-62,"dy":-75,"t":23006},{"dx":-42,"dy":-34,"t":23045},{"dx":-54,"dy":-32,"t":23074},{"dx":-61,"dy":-64,"t":23114},{"dx":-103,"dy":-71,"t":23144},{"dx":-142,"dy":-34,"t":23185},{"dx":-176,"dy":-35,"t":23216},{"dx":-149,"dy":-51,"t":23259},{"dx":-91,"dy":-56,"t":23291},{"dx":-111,"dy":-43,"t":23330},{"dx":-156,"dy":-21,"t":23361},{"dx":-179,"dy":-41,"t":23400},{"dx":-158,"dy":-25,"t":23432},{"dx":-179,"dy":-66,"t":23475},{"dx":-100,"dy":-113,"t":23506},{"dx":-72,"dy":-160,"t":23546},{"dx":-127,"dy":-122,"t":23574},{"dx":-193,"dy":-34,"t":23613},{"dx":-200,"dy":-18,"t":23645},{"dx":-200,"dy":-79,"t":23686},{"dx":-152,"dy":-126,"t":23716},{"dx":-234,"dy":-151,"t":23755},{"dx":-271,"dy":-147,"t":23786},{"dx":-220,"dy":-116,"t":23826},{"dx":-183,"dy":-95,"t":23861},{"dx":-192,"dy":-38,"t":23910},{"dx":-226,"dy":-9,"t":23941},{"dx":-132,"dy":-63,"t":23981},{"dx":-114,"dy":-98,"t":24009},{"dx":-185,"dy":-112,"t":24050},{"dx":-217,"dy":-105,"t":24079},{"dx":-117,"dy":-88,"t":24121},{"dx":-74,"dy":-80,"t":24151},{"dx":-48,"dy":-73,"t":24178}],[{"dx":-441,"dy":-155,"t":25193},{"dx":-412,"dy":-177,"t":25223},{"dx":-303,"dy":-181,"t":25262},{"dx":-300,"dy":-197,"t":25292},{"dx":-328,"dy":-217,"t":25333},{"dx":-353,"dy":-207,"t":25364},{"dx":-371,"dy":-188,"t":25404},{"dx":-331,"dy":-193,"t":25436},{"dx":-417,"dy":-172,"t":25484},{"dx":-488,"dy":-159,"t":25516},{"dx":-438,"dy":-173,"t":25564},{"dx":-354,"dy":-190,"t":25597},{"dx":-347,"dy":-168,"t":25635},{"dx":-348,"dy":-172,"t":25665},{"dx":-329,"dy":-139,"t":25706},{"dx":-309,"dy":-155,"t":25735},{"dx":-297,"dy":-242,"t":25776},{"dx":-278,"dy":-290,"t":25806},{"dx":-280,"dy":-259,"t":25847},{"dx":-359,"dy":-232,"t":25877},{"dx":-442,"dy":-217,"t":25916},{"dx":-424,"dy":-176,"t":25946},{"dx":-440,"dy":-168,"t":25992},{"dx":-415,"dy":-168,"t":26022},{"dx":-430,"dy":-142,"t":26062},{"dx":-454,"dy":-126,"t":26091},{"dx":-474,"dy":-120,"t":26130},{"dx":-474,"dy":-128,"t":26162},{"dx":-519,"dy":-163,"t":26204},{"dx":-539,"dy":-184,"t":26235},{"dx":-497,"dy":-205,"t":26276},{"dx":-469,"dy":-199,"t":26310},{"dx":-491,"dy":-159,"t":26350},{"dx":-503,"dy":-153,"t":26381},{"dx":-384,"dy":-178,"t":26423},{"dx":-315,"dy":-210,"t":26453},{"dx":-311,"dy":-162,"t":26493},{"dx":-315,"dy":-143,"t":26523},{"dx":-220,"dy":-136,"t":26562},{"dx":-200,"dy":-152,"t":26592},{"dx":-191,"dy":-182,"t":26633},{"dx":-181,"dy":-184,"t":26663},{"dx":-200,"dy":-206,"t":26703},{"dx":-236,"dy":-260,"t":26733},{"dx":-264,"dy":-214,"t":26772},{"dx":-339,"dy":-196,"t":26803},{"dx":-386,"dy":-163,"t":26844},{"dx":-353,"dy":-166,"t":26875},{"dx":-337,"dy":-209,"t":26914},{"dx":-356,"dy":-228,"t":26949},{"dx":-391,"dy":-190,"t":26991},{"dx":-447,"dy":-184,"t":27020},{"dx":-450,"dy":-165,"t":27063},{"dx":-396,"dy":-196,"t":27102},{"dx":-337,"dy":-195,"t":27185},{"dx":-320,"dy":-190,"t":27220},{"dx":-296,"dy":-187,"t":27246}],[{"dx":-214,"dy":-50,"t":28256},{"dx":-285,"dy":-32,"t":28286},{"dx":-260,"dy":-49,"t":28329},{"dx":-291,"dy":-43,"t":28359},{"dx":-263,"dy":-115,"t":2