[{"rt":47644.40000000468,"stimulus":"\n      <p>You can elect whether to include your data in our research dataset.</p>\n    ","response":0,"question":"consent","trial_type":"html-button-response","trial_index":0,"time_elapsed":47650,"internal_node_id":"0.0-0.0","user_agent":"Mozilla/5.0 (Windows NT 10.0; Win64; x64) AppleWebKit/537.36 (KHTML, like Gecko) Chrome/89.0.4389.82 Safari/537.36","screen_width_px":1280,"screen_height_px":720},{"rt":992.4400000018068,"stimulus":"\n      <p>This experiment uses your camera for eye tracking.</p>\n      <p>No video is saved from this experiment. The only data recorded are predictions about where you are looking.</p>\n      <p>Before we begin, there are a few things to do that can improve the accuracy of the eye tracking.</p>\n    ","response":0,"trial_type":"html-button-response","trial_index":1,"time_elapsed":48645,"internal_node_id":"0.0-1.0","user_agent":"Mozilla/5.0 (Windows NT 10.0; Win64; x64) AppleWebKit/537.36 (KHTML, like Gecko) Chrome/89.0.4389.82 Safari/537.36","screen_width_px":1280,"screen_height_px":720},{"rt":1945.5349999916507,"stimulus":"\n      <p>If you wear glasses and can complete the task without them, please remove your glasses.</p>\n    ","response":0,"trial_type":"html-button-response","trial_index":2,"time_elapsed":50593,"internal_node_id":"0.0-2.0","user_agent":"Mozilla/5.0 (Windows NT 10.0; Win64; x64) AppleWebKit/537.36 (KHTML, like Gecko) Chrome/89.0.4389.82 Safari/537.36","screen_width_px":1280,"screen_height_px":720},{"rt":3025.229999999283,"stimulus":"\n      <p>Please close additional browser tabs and apps running in the background.<br>The eye tracker works best when there are fewer things running at the same time.</p>\n    ","response":0,"trial_type":"html-button-response","trial_index":3,"time_elapsed":53619,"internal_node_id":"0.0-3.0","user_agent":"Mozilla/5.0 (Windows NT 10.0; Win64; x64) AppleWebKit/537.36 (KHTML, like Gecko) Chrome/89.0.4389.82 Safari/537.36","screen_width_px":1280,"screen_height_px":720},{"rt":14668.494999990799,"stimulus":"\n      <p>Try to avoid bright lights behind you.<br>The eye tracker works best if your face is well lit from the front.<br>If you can, adjust the lighting in your room.</p>\n    ","response":0,"trial_type":"html-button-response","trial_index":4,"time_elapsed":68288,"internal_node_id":"0.0-4.0","user_agent":"Mozilla/5.0 (Windows NT 10.0; Win64; x64) AppleWebKit/537.36 (KHTML, like Gecko) Chrome/89.0.4389.82 Safari/537.36","screen_width_px":1280,"screen_height_px":720},{"rt":1007.9899999982445,"stimulus":"\n      <p>In order to participate you must allow the experiment to use your camera.</p>\n      <p>You will be prompted to do this on the next screen.</p>\n    ","response":0,"trial_type":"html-button-response","trial_index":5,"time_elapsed":69298,"internal_node_id":"0.0-5.0","user_agent":"Mozilla/5.0 (Windows NT 10.0; Win64; x64) AppleWebKit/537.36 (KHTML, like Gecko) Chrome/89.0.4389.82 Safari/537.36","screen_width_px":1280,"screen_height_px":720},{"trial_type":"webgazer-init-camera","trial_index":6,"time_elapsed":107979,"internal_node_id":"0.0-6.0","user_agent":"Mozilla/5.0 (Windows NT 10.0; Win64; x64) AppleWebKit/537.36 (KHTML, like Gecko) Chrome/89.0.4389.82 Safari/537.36","screen_width_px":1280,"screen_height_px":720},{"rt":2166.4099999907194,"stimulus":"\n      <p>Now you'll complete a series of calibrations and validations.</p>\n      <p>The calibration will be reset after each round, so it is OK to move a little bit<br>in between the end of a validation and the start of the next calibration.</p>\n      <p>Please keep your head still during each round.</p>\n    ","response":0,"trial_type":"html-button-response","trial_index":7,"time_elapsed":110147,"internal_node_id":"0.0-7.0","user_agent":"Mozilla/5.0 (Windows NT 10.0; Win64; x64) AppleWebKit/537.36 (KHTML, like Gecko) Chrome/89.0.4389.82 Safari/537.36","screen_width_px":1280,"screen_height_px":720},{"success":true,"trial_type":"fullscreen","trial_index":8,"time_elapsed":115753,"internal_node_id":"0.0-8.0","user_agent":"Mozilla/5.0 (Windows NT 10.0; Win64; x64) AppleWebKit/537.36 (KHTML, like Gecko) Chrome/89.0.4389.82 Safari/537.36","screen_width_px":1280,"screen_height_px":720},{"rt":2059.3250000092667,"stimulus":"\n      <p>During the calibration phase, please look at each dot and click on it.</p>\n      <p>During the validation phase, just look at each dot while it is on the screen.</p>\n    ","response":0,"trial_type":"html-button-response","trial_index":9,"time_elapsed":117813,"internal_node_id":"0.0-9.0","user_agent":"Mozilla/5.0 (Windows NT 10.0; Win64; x64) AppleWebKit/537.36 (KHTML, like Gecko) Chrome/89.0.4389.82 Safari/537.36","screen_width_px":1280,"screen_height_px":720},{"rt":762.5300000072457,"stimulus":"\n      <p>Calibration phase next.</p>\n      <p>Click on the dots.</p>\n    ","response":0,"trial_type":"html-button-response","trial_index":10,"time_elapsed":118576,"internal_node_id":"0.0-10.0-0.0","user_agent":"Mozilla/5.0 (Windows NT 10.0; Win64; x64) AppleWebKit/537.36 (KHTML, like Gecko) Chrome/89.0.4389.82 Safari/537.36","screen_width_px":1280,"screen_height_px":720},{"trial_type":"webgazer-calibrate","trial_index":11,"time_elapsed":137043,"internal_node_id":"0.0-10.0-1.0","user_agent":"Mozilla/5.0 (Windows NT 10.0; Win64; x64) AppleWebKit/537.36 (KHTML, like Gecko) Chrome/89.0.4389.82 Safari/537.36","screen_width_px":1280,"screen_height_px":720},{"rt":1018.8550000020768,"stimulus":"\n      <p>Validation phase next.</p>\n      <p>Look at the dots.</p>\n    ","response":0,"trial_type":"html-button-response","trial_index":12,"time_elapsed":138064,"internal_node_id":"0.0-10.0-2.0","user_agent":"Mozilla/5.0 (Windows NT 10.0; Win64; x64) AppleWebKit/537.36 (KHTML, like Gecko) Chrome/89.0.4389.82 Safari/537.36","screen_width_px":1280,"screen_height_px":720},{"raw_gaze":[[{"dx":70,"dy":-2,"t":1076},{"dx":78,"dy":10,"t":1107},{"dx":73,"dy":25,"t":1144},{"dx":67,"dy":35,"t":1174},{"dx":35,"dy":27,"t":1210},{"dx":46,"dy":16,"t":1240},{"dx":10,"dy":-21,"t":1277},{"dx":-2,"dy":-33,"t":1306},{"dx":-15,"dy":-46,"t":1341},{"dx":31,"dy":-38,"t":1371},{"dx":52,"dy":-50,"t":1407},{"dx":43,"dy":-52,"t":1438},{"dx":28,"dy":-28,"t":1485},{"dx":23,"dy":-1,"t":1514},{"dx":30,"dy":9,"t":1550},{"dx":32,"dy":2,"t":1580},{"dx":30,"dy":-5,"t":1620},{"dx":25,"dy":-6,"t":1657},{"dx":44,"dy":-24,"t":1696},{"dx":56,"dy":-40,"t":1725},{"dx":82,"dy":9,"t":1765},{"dx":99,"dy":13,"t":1798},{"dx":98,"dy":-55,"t":1834},{"dx":100,"dy":-65,"t":1864},{"dx":85,"dy":-63,"t":1903},{"dx":71,"dy":-54,"t":1931},{"dx":131,"dy":-28,"t":1968},{"dx":189,"dy":-25,"t":1997},{"dx":276,"dy":-47,"t":2034},{"dx":298,"dy":-50,"t":2063},{"dx":332,"dy":-77,"t":2101},{"dx":382,"dy":-124,"t":2132},{"dx":423,"dy":-96,"t":2167},{"dx":410,"dy":-81,"t":2198},{"dx":341,"dy":-64,"t":2236},{"dx":273,"dy":-48,"t":2267},{"dx":148,"dy":-1,"t":2304},{"dx":88,"dy":-14,"t":2337},{"dx":31,"dy":-5,"t":2386},{"dx":19,"dy":-20,"t":2415},{"dx":-10,"dy":10,"t":2452},{"dx":0,"dy":17,"t":2483},{"dx":14,"dy":45,"t":2522},{"dx":38,"dy":20,"t":2557},{"dx":97,"dy":-9,"t":2594},{"dx":101,"dy":26,"t":2624},{"dx":92,"dy":50,"t":2660},{"dx":73,"dy":44,"t":2689},{"dx":79,"dy":-3,"t":2726},{"dx":77,"dy":-7,"t":2755},{"dx":49,"dy":-14,"t":2792},{"dx":46,"dy":-11,"t":2822},{"dx":1,"dy":2,"t":2859},{"dx":-19,"dy":8,"t":2890},{"dx":-30,"dy":14,"t":2926},{"dx":-32,"dy":16,"t":2956},{"dx":39,"dy":74,"t":2990},{"dx":55,"dy":100,"t":3020},{"dx":45,"dy":89,"t":3057},{"dx":34,"dy":86,"t":3071}],[{"dx":-76,"dy":-125,"t":4093},{"dx":-62,"dy":-141,"t":4124},{"dx":-102,"dy":-128,"t":4161},{"dx":-112,"dy":-133,"t":4192},{"dx":-107,"dy":-85,"t":4226},{"dx":-81,"dy":-90,"t":4255},{"dx":-91,"dy":-87,"t":4291},{"dx":-104,"dy":-81,"t":4320},{"dx":-79,"dy":-76,"t":4357},{"dx":-52,"dy":-74,"t":4387},{"dx":-4,"dy":-103,"t":4425},{"dx":42,"dy":-133,"t":4461},{"dx":-6,"dy":-124,"t":4499},{"dx":-35,"dy":-141,"t":4530},{"dx":-97,"dy":-131,"t":4567},{"dx":-126,"dy":-119,"t":4598},{"dx":-195,"dy":-97,"t":4634},{"dx":-220,"dy":-88,"t":4669},{"dx":-248,"dy":-10,"t":4706},{"dx":-265,"dy":44,"t":4737},{"dx":-268,"dy":42,"t":4773},{"dx":-286,"dy":35,"t":4803},{"dx":-257,"dy":10,"t":4842},{"dx":-255,"dy":7,"t":4875},{"dx":-252,"dy":12,"t":4913},{"dx":-259,"dy":35,"t":4953},{"dx":-246,"dy":19,"t":4994},{"dx":-238,"dy":4,"t":5028},{"dx":-192,"dy":-32,"t":5068},{"dx":-181,"dy":-40,"t":5102},{"dx":-163,"dy":-45,"t":5137},{"dx":-162,"dy":-47,"t":5167},{"dx":-97,"dy":-64,"t":5204},{"dx":-82,"dy":-89,"t":5234},{"dx":-29,"dy":-99,"t":5270},{"dx":-11,"dy":-105,"t":5301},{"dx":-9,"dy":-86,"t":5341},{"dx":10,"dy":-87,"t":5370},{"dx":-11,"dy":-59,"t":5408},{"dx":-28,"dy":-46,"t":5437},{"dx":-65,"dy":-68,"t":5475},{"dx":-97,"dy":-89,"t":5507},{"dx":-130,"dy":-67,"t":5543},{"dx":-125,"dy":-65,"t":5574},{"dx":-80,"dy":-76,"t":5612},{"dx":-49,"dy":-93,"t":5642},{"dx":-48,"dy":-104,"t":5679},{"dx":-55,"dy":-129,"t":5709},{"dx":-55,"dy":-87,"t":5745},{"dx":-50,"dy":-79,"t":5774},{"dx":-59,"dy":-120,"t":5812},{"dx":-64,"dy":-171,"t":5843},{"dx":-62,"dy":-166,"t":5880},{"dx":-39,"dy":-165,"t":5911},{"dx":5,"dy":-147,"t":5947},{"dx":32,"dy":-151,"t":5975},{"dx":-12,"dy":-133,"t":6013},{"dx":-22,"dy":-148,"t":6042},{"dx":-87,"dy":-73,"t":6082},{"dx":-116,"dy":-54,"t":6097}],[{"dx":-28,"dy":108,"t":7110},{"dx":-13,"dy":99,"t":7142},{"dx":-59,"dy":71,"t":7178},{"dx":-79,"dy":60,"t":7209},{"dx":-8,"dy":49,"t":7246},{"dx":27,"dy":43,"t":7276},{"dx":42,"dy":81,"t":7313},{"dx":41,"dy":93,"t":7343},{"dx":104,"dy":85,"t":7378},{"dx":140,"dy":78,"t":7409},{"dx":131,"dy":75,"t":7447},{"dx":133,"dy":72,"t":7478},{"dx":105,"dy":47,"t":7516},{"dx":84,"dy":36,"t":7546},{"dx":16,"dy":43,"t":7583},{"dx":-17,"dy":56,"t":7612},{"dx":-12,"dy":34,"t":7650},{"dx":-5,"dy":27,"t":7679},{"dx":21,"dy":15,"t":7714},{"dx":26,"dy":1,"t":7743},{"dx":33,"dy":81,"t":7782},{"dx":44,"dy":93,"t":7815},{"dx":46,"dy":102,"t":7850},{"dx":17,"dy":101,"t":7879},{"dx":21,"dy":133,"t":7915},{"dx":34,"dy":142,"t":7979},{"dx":37,"dy":127,"t":8013},{"dx":16,"dy":113,"t":8050},{"dx":-4,"dy":76,"t":8093},{"dx":-15,"dy":32,"t":8123},{"dx":28,"dy":49,"t":8161},{"dx":53,"dy":62,"t":8191},{"dx":23,"dy":67,"t":8228},{"dx":17,"dy":50,"t":8258},{"dx":22,"dy":65,"t":8295},{"dx":36,"dy":71,"t":8325},{"dx":7,"dy":84,"t":8361},{"dx":0,"dy":99,"t":8390},{"dx":25,"dy":132,"t":8428},{"dx":47,"dy":153,"t":8458},{"dx":85,"dy":202,"t":8496},{"dx":98,"dy":230,"t":8528},{"dx":98,"dy":242,"t":8564},{"dx":105,"dy":238,"t":8593},{"dx":105,"dy":218,"t":8628},{"dx":101,"dy":196,"t":8657},{"dx":94,"dy":142,"t":8693},{"dx":105,"dy":134,"t":8723},{"dx":87,"dy":109,"t":8760},{"dx":64,"dy":94,"t":8790},{"dx":62,"dy":99,"t":8827},{"dx":80,"dy":66,"t":8858},{"dx":53,"dy":59,"t":8896},{"dx":39,"dy":52,"t":8926},{"dx":24,"dy":73,"t":8964},{"dx":42,"dy":84,"t":8993},{"dx":60,"dy":82,"t":9030},{"dx":56,"dy":86,"t":9060},{"dx":56,"dy":98,"t":9100},{"dx":77,"dy":108,"t":9113}],[{"dx":52,"dy":189,"t":10128},{"dx":76,"dy":184,"t":10159},{"dx":58,"dy":192,"t":10195},{"dx":41,"dy":205,"t":10225},{"dx":33,"dy":205,"t":10261},{"dx":30,"dy":204,"t":10292},{"dx":-13,"dy":222,"t":10329},{"dx":-13,"dy":241,"t":10359},{"dx":30,"dy":230,"t":10399},{"dx":11,"dy":198,"t":10428},{"dx":-15,"dy":184,"t":10465},{"dx":-25,"dy":158,"t":10494},{"dx":-29,"dy":155,"t":10532},{"dx":-44,"dy":156,"t":10562},{"dx":-15,"dy":165,"t":10599},{"dx":-2,"dy":172,"t":10634},{"dx":44,"dy":172,"t":10671},{"dx":52,"dy":163,"t":10700},{"dx":45,"dy":175,"t":10737},{"dx":25,"dy":169,"t":10767},{"dx":18,"dy":162,"t":10801},{"dx":9,"dy":152,"t":10832},{"dx":-13,"dy":136,"t":10868},{"dx":-26,"dy":123,"t":10898},{"dx":-47,"dy":122,"t":10933},{"dx":-69,"dy":114,"t":10963},{"dx":-63,"dy":131,"t":11001},{"dx":-70,"dy":122,"t":11030},{"dx":-2,"dy":162,"t":11065},{"dx":15,"dy":155,"t":11095},{"dx":27,"dy":166,"t":11133},{"dx":25,"dy":163,"t":11162},{"dx":61,"dy":179,"t":11200},{"dx":84,"dy":185,"t":11229},{"dx":108,"dy":186,"t":11266},{"dx":118,"dy":169,"t":11297},{"dx":111,"dy":171,"t":11334},{"dx":97,"dy":193,"t":11362},{"dx":55,"dy":210,"t":11401},{"dx":-15,"dy":199,"t":11435},{"dx":-4,"dy":207,"t":11471},{"dx":-5,"dy":200,"t":11501},{"dx":15,"dy":231,"t":11536},{"dx":31,"dy":251,"t":11567},{"dx":29,"dy":240,"t":11604},{"dx":10,"dy":233,"t":11634},{"dx":63,"dy":235,"t":11669},{"dx":81,"dy":241,"t":11700},{"dx":29,"dy":288,"t":11735},{"dx":-9,"dy":312,"t":11766},{"dx":-26,"dy":322,"t":11805},{"dx":-9,"dy":328,"t":11839},{"dx":43,"dy":287,"t":11876},{"dx":57,"dy":272,"t":11906},{"dx":85,"dy":228,"t":11943},{"dx":78,"dy":205,"t":11979},{"dx":79,"dy":165,"t":12018},{"dx":95,"dy":151,"t":12048},{"dx":76,"dy":170,"t":12084},{"dx":59,"dy":181,"t":12116},{"dx":61,"dy":161,"t":12143}],[{"dx":16,"dy":456,"t":13167},{"dx":3,"dy":459,"t":13197},{"dx":-3,"dy":458,"t":13232},{"dx":-2,"dy":446,"t":13264},{"dx":-10,"dy":429,"t":13316},{"dx":-13,"dy":418,"t":13342},{"dx":-24,"dy":399,"t":13380},{"dx":-30,"dy":388,"t":13415},{"dx":-35,"dy":420,"t":13452},{"dx":-18,"dy":442,"t":13482},{"dx":-24,"dy":490,"t":13520},{"dx":-20,"dy":517,"t":13554},{"dx":47,"dy":529,"t":13592},{"dx":71,"dy":535,"t":13622},{"dx":99,"dy":473,"t":13658},{"dx":76,"dy":449,"t":13688},{"dx":-28,"dy":432,"t":13725},{"dx":-56,"dy":413,"t":13756},{"dx":-86,"dy":440,"t":13792},{"dx":-102,"dy":453,"t":13828},{"dx":-70,"dy":483,"t":13867},{"dx":-61,"dy":504,"t":13897},{"dx":19,"dy":525,"t":13934},{"dx":44,"dy":544,"t":13964},{"dx":79,"dy":485,"t":14002},{"dx":58,"dy":468,"t":14032},{"dx":87,"dy":408,"t":14070},{"dx":78,"dy":392,"t":14098},{"dx":38,"dy":391,"t":14136},{"dx":26,"dy":404,"t":14167},{"dx":15,"dy":432,"t":14204},{"dx":7,"dy":436,"t":14234},{"dx":-18,"dy":461,"t":14269},{"dx":-56,"dy":485,"t":14299},{"dx":-80,"dy":457,"t":14336},{"dx":-60,"dy":468,"t":14367},{"dx":-58,"dy":415,"t":14403},{"dx":-89,"dy":403,"t":14433},{"dx":-112,"dy":404,"t":14468},{"dx":-116,"dy":393,"t":14498},{"dx":-77,"dy":358,"t":14534},{"dx":-69,"dy":342,"t":14564},{"dx":-40,"dy":394,"t":14602},{"dx":-18,"dy":410,"t":14632},{"dx":-2,"dy":469,"t":14668},{"dx":-3,"dy":510,"t":14699},{"dx":-56,"dy":477,"t":14734},{"dx":-54,"dy":456,"t":14764},{"dx":-57,"dy":441,"t":14801},{"dx":-83,"dy":436,"t":14831},{"dx":-78,"dy":435,"t":14869},{"dx":-90,"dy":446,"t":14899},{"dx":-66,"dy":414,"t":14934},{"dx":-51,"dy":407,"t":14964},{"dx":-58,"dy":420,"t":15002},{"dx":-47,"dy":451,"t":15035},{"dx":-56,"dy":463,"t":15070},{"dx":-50,"dy":465,"t":15101},{"dx":-9,"dy":419,"t":15140},{"dx":6,"dy":382,"t":15155}],[{"dx":147,"dy":248,"t":16152},{"dx":183,"dy":198,"t":16211},{"dx":201,"dy":185,"t":16243},{"dx":228,"dy":169,"t":16279},{"dx":233,"dy":212,"t":16310},{"dx":215,"dy":229,"t":16348},{"dx":192,"dy":237,"t":16381},{"dx":166,"dy":239,"t":16418},{"dx":132,"dy":255,"t":16447},{"dx":134,"dy":261,"t":16483},{"dx":131,"dy":300,"t":16512},{"dx":150,"dy":275,"t":16548},{"dx":140,"dy":277,"t":16577},{"dx":219,"dy":266,"t":16614},{"dx":243,"dy":284,"t":16645},{"dx":293,"dy":259,"t":16681},{"dx":313,"dy":248,"t":16717},{"dx":305,"dy":225,"t":16755},{"dx":311,"dy":211,"t":16785},{"dx":324,"dy":212,"t":16822},{"dx":318,"dy":222,"t":16852},{"dx":295,"dy":209,"t":16889},{"dx":290,"dy":205,"t":16920},{"dx":296,"dy":205,"t":16956},{"dx":285,"dy":210,"t":16987},{"dx":268,"dy":210,"t":17024},{"dx":295,"dy":217,"t":17054},{"dx":308,"dy":207,"t":17092},{"dx":300,"dy":209,"t":17128},{"dx":268,"dy":218,"t":17171},{"dx":259,"dy":228,"t":17204},{"dx":295,"dy":266,"t":17241},{"dx":339,"dy":281,"t":17270},{"dx":339,"dy":304,"t":17308},{"dx":332,"dy":298,"t":17337},{"dx":319,"dy":310,"t":17376},{"dx":314,"dy":324,"t":17410},{"dx":330,"dy":313,"t":17447},{"dx":327,"dy":312,"t":17476},{"dx":327,"dy":287,"t":17512},{"dx":316,"dy":271,"t":17542},{"dx":286,"dy":266,"t":17578},{"dx":271,"dy":251,"t":17606},{"dx":304,"dy":277,"t":17644},{"dx":308,"dy":281,"t":17673},{"dx":330,"dy":280,"t":17708},{"dx":341,"dy":270,"t":17738},{"dx":328,"dy":276,"t":17773},{"dx":307,"dy":262,"t":17803},{"dx":362,"dy":310,"t":17840},{"dx":380,"dy":303,"t":17871},{"dx":372,"dy":305,"t":17907},{"dx":416,"dy":317,"t":17939},{"dx":431,"dy":306,"t":17975},{"dx":483,"dy":320,"t":18006},{"dx":444,"dy":291,"t":18044},{"dx":425,"dy":281,"t":18073},{"dx":472,"dy":293,"t":18111},{"dx":454,"dy":299,"t":18144},{"dx":531,"dy":337,"t":18168}],[{"dx":152,"dy":253,"t":19176},{"dx":161,"dy":296,"t":19206},{"dx":172,"dy":320,"t":19244},{"dx":187,"dy":332,"t":19273},{"dx":155,"dy":326,"t":19311},{"dx":141,"dy":343,"t":19351},{"dx":120,"dy":391,"t":19391},{"dx":129,"dy":390,"t":19421},{"dx":169,"dy":395,"t":19457},{"dx":180,"dy":373,"t":19487},{"dx":225,"dy":301,"t":19523},{"dx":241,"dy":270,"t":19554},{"dx":237,"dy":325,"t":19590},{"dx":213,"dy":337,"t":19621},{"dx":170,"dy":320,"t":19658},{"dx":157,"dy":303,"t":19688},{"dx":108,"dy":279,"t":19726},{"dx":92,"dy":286,"t":19757},{"dx":74,"dy":249,"t":19791},{"dx":46,"dy":265,"t":19822},{"dx":85,"dy":214,"t":19857},{"dx":67,"dy":225,"t":19887},{"dx":30,"dy":271,"t":19924},{"dx":37,"dy":282,"t":19955},{"dx":22,"dy":323,"t":19991},{"dx":26,"dy":337,"t":20020},{"dx":75,"dy":309,"t":20056},{"dx":83,"dy":303,"t":20090},{"dx":36,"dy":286,"t":20129},{"dx":14,"dy":258,"t":20159},{"dx":12,"dy":259,"t":20199},{"dx":25,"dy":260,"t":20229},{"dx":10,"dy":250,"t":20267},{"dx":-4,"dy":292,"t":20296},{"dx":0,"dy":238,"t":20334},{"dx":-12,"dy":222,"t":20363},{"dx":19,"dy":180,"t":20401},{"dx":39,"dy":157,"t":20430},{"dx":62,"dy":156,"t":20465},{"dx":66,"dy":184,"t":20496},{"dx":61,"dy":177,"t":20532},{"dx":52,"dy":190,"t":20560},{"dx":9,"dy":197,"t":20596},{"dx":-6,"dy":165,"t":20631},{"dx":10,"dy":154,"t":20672},{"dx":12,"dy":132,"t":20705},{"dx":59,"dy":164,"t":20742},{"dx":64,"dy":179,"t":20772},{"dx":16,"dy":210,"t":20806},{"dx":-4,"dy":213,"t":20837},{"dx":-4,"dy":224,"t":20874},{"dx":4,"dy":253,"t":20904},{"dx":-12,"dy":261,"t":20942},{"dx":-20,"dy":250,"t":20971},{"dx":3,"dy":273,"t":21008},{"dx":17,"dy":291,"t":21038},{"dx":-20,"dy":247,"t":21073},{"dx":-53,"dy":228,"t":21103},{"dx":-44,"dy":236,"t":21140},{"dx":-51,"dy":228,"t":21174},{"dx":-84,"dy":256,"t":21197}],[{"dx":307,"dy":410,"t":22185},{"dx":339,"dy":406,"t":22253},{"dx":346,"dy":413,"t":22285},{"dx":384,"dy":394,"t":22321},{"dx":415,"dy":385,"t":22351},{"dx":453,"dy":361,"t":22391},{"dx":448,"dy":341,"t":22425},{"dx":414,"dy":257,"t":22461},{"dx":411,"dy":241,"t":22491},{"dx":449,"dy":317,"t":22527},{"dx":450,"dy":350,"t":22556},{"dx":429,"dy":327,"t":22593},{"dx":380,"dy":304,"t":22623},{"dx":419,"dy":335,"t":22659},{"dx":438,"dy":335,"t":22689},{"dx":428,"dy":313,"t":22724},{"dx":406,"dy":294,"t":22753},{"dx":466,"dy":325,"t":22790},{"dx":491,"dy":339,"t":22820},{"dx":479,"dy":359,"t":22856},{"dx":466,"dy":376,"t":22885},{"dx":428,"dy":367,"t":22922},{"dx":470,"dy":390,"t":22951},{"dx":455,"dy":367,"t":22990},{"dx":472,"dy":360,"t":23021},{"dx":516,"dy":397,"t":23058},{"dx":520,"dy":395,"t":23088},{"dx":509,"dy":365,"t":23124},{"dx":536,"dy":376,"t":23155},{"dx":550,"dy":407,"t":23194},{"dx":518,"dy":408,"t":23225},{"dx":538,"dy":411,"t":23263},{"dx":543,"dy":396,"t":23293},{"dx":508,"dy":355,"t":23332},{"dx":512,"dy":359,"t":23366},{"dx":476,"dy":335,"t":23403},{"dx":445,"dy":305,"t":23433},{"dx":414,"dy":271,"t":23470},{"dx":410,"dy":261,"t":23499},{"dx":452,"dy":304,"t":23534},{"dx":464,"dy":317,"t":23564},{"dx":409,"dy":301,"t":23609},{"dx":423,"dy":302,"t":23659},{"dx":455,"dy":335,"t":23693},{"dx":458,"dy":337,"t":23721},{"dx":452,"dy":381,"t":23756},{"dx":443,"dy":425,"t":23786},{"dx":437,"dy":449,"t":23822},{"dx":422,"dy":447,"t":23851},{"dx":463,"dy":522,"t":23888},{"dx":482,"dy":512,"t":23918},{"dx":455,"dy":469,"t":23955},{"dx":403,"dy":428,"t":23984},{"dx":316,"dy":323,"t":24022},{"dx":301,"dy":315,"t":24053},{"dx":244,"dy":263,"t":24090},{"dx":246,"dy":279,"t":24119},{"dx":257,"dy":252,"t":24155},{"dx":248,"dy":279,"t":24188},{"dx":311,"dy":332,"t":24214}],[{"dx":523,"dy":-76,"t":25226},{"dx":487,"dy":-89,"t":25258},{"dx":507,"dy":-98,"t":25294},{"dx":569,"dy":-95,"t":25324},{"dx":562,"dy":-92,"t":25360},{"dx":535,"dy":-78,"t":25391},{"dx":462,"dy":-111,"t":25428},{"dx":432,"dy":-136,"t":25458},{"dx":388,"dy":-156,"t":25496},{"dx":356,"dy":-161,"t":25527},{"dx":294,"dy":-153,"t":25563},{"dx":273,"dy":-158,"t":25593},{"dx":263,"dy":-143,"t":25629},{"dx":275,"dy":-131,"t":25659},{"dx":271,"dy":-112,"t":25694},{"dx":263,"dy":-99,"t":25723},{"dx":257,"dy":-99,"t":25759},{"dx":266,"dy":-102,"t":25789},{"dx":267,"dy":-81,"t":25826},{"dx":248,"dy":-59,"t":25856},{"dx":187,"dy":-78,"t":25892},{"dx":164,"dy":-85,"t":25925},{"dx":168,"dy":-42,"t":25963},{"dx":171,"dy":-11,"t":25993},{"dx":219,"dy":22,"t":26032},{"dx":254,"dy":26,"t":26061},{"dx":329,"dy":-58,"t":26097},{"dx":349,"dy":-59,"t":26127},{"dx":428,"dy":-73,"t":26162},{"dx":458,"dy":-57,"t":26192},{"dx":478,"dy":-108,"t":26230},{"dx":487,"dy":-131,"t":26262},{"dx":480,"dy":-134,"t":26297},{"dx":477,"dy":-140,"t":26329},{"dx":443,"dy":-123,"t":26365},{"dx":442,"dy":-102,"t":26396},{"dx":435,"dy":-121,"t":26432},{"dx":428,"dy":-138,"t":26461},{"dx":468,"dy":-144,"t":26496},{"dx":497,"dy":-141,"t":26526},{"dx":405,"dy":-185,"t":26562},{"dx":358,"dy":-212,"t":26590},{"dx":345,"dy":-194,"t":26629},{"dx":374,"dy":-198,"t":26659},{"dx":428,"dy":-149,"t":26696},{"dx":479,"dy":-115,"t":26725},{"dx":389,"dy":-134,"t":26762},{"dx":345,"dy":-158,"t":26794},{"dx":353,"dy":-130,"t":26831},{"dx":380,"dy":-103,"t":26861},{"dx":254,"dy":-141,"t":26896},{"dx":212,"dy":-163,"t":26926},{"dx":210,"dy":-178,"t":26963},{"dx":201,"dy":-178,"t":26994},{"dx":193,"dy":-174,"t":27032},{"dx":208,"dy":-170,"t":27063},{"dx":338,"dy":-149,"t":27099},{"dx":382,"dy":-116,"t":27130},{"dx":452,"dy":-104,"t":27164},{"dx":495,"dy":-113,"t":27199},{"dx":436,"dy":-116,"t":27225}],[{"dx":346,"dy":109,"t":28226},{"dx":348,"dy":73,"t":28255},{"dx":315,"dy":-2,"t":28293},{"dx":306,"dy":-35,"t":28324},{"dx":362,"dy":-82,"t":28362},{"dx":403,"dy":-118,"t":28391},{"dx":407,"dy":-90,"t":28427},{"dx":436,"dy":-85,"t":28459},{"dx":357,"dy":-76,"t":28497},{"dx":354,"dy":-60,"t":28532},{"dx":309,"dy":-51,"t":28570},{"dx":311,"dy":-51,"t":28599},{"dx":244,"dy":-68,"t":28636},{"dx":252,"dy":-75,"t":28668},{"dx":201,"dy":-86,"t":28705},{"dx":185,"dy":-91,"t":28734},{"dx":142,"dy":-95,"t":28769},{"dx":139,"dy":-95,"t":28798},{"dx":104,"dy":-96,"t":28833},{"dx":94,"dy":-97,"t":28862},{"dx":103,"dy":-114,"t":28899},{"dx":88,"dy":-129,"t":28962},{"dx":43,"dy":-141,"t":28996},{"dx":16,"dy":-139,"t":29027},{"dx":28,"dy":-123,"t":29062},{"dx":37,"dy":-125,"t":29101},{"dx":198,"dy":-15,"t":29142},{"dx":325,"dy":74,"t":29172},{"dx":426,"dy":214,"t":29210},{"dx":456,"dy":237,"t":29240},{"dx":380,"dy":218,"t":29279},{"dx":305,"dy":152,"t":29313},{"dx":193,"dy":40,"t":29350},{"dx":137,"dy":-9,"t":29379},{"dx":121,"dy":-66,"t":29415},{"dx":133,"dy":-80,"t":29445},{"dx":112,"dy":-108,"t":29481},{"dx":107,"dy":-114,"t":29511},{"dx":99,"dy":-125,"t":29549},{"dx":115,"dy":-141,"t":29578},{"dx":146,"dy":-154,"t":29614},{"dx":170,"dy":-157,"t":29645},{"dx":106,"dy":-170,"t":29681},{"dx":71,"dy":-166,"t":29712},{"dx":134,"dy":-173,"t":29747},{"dx":167,"dy":-168,"t":29778},{"dx":210,"dy":-101,"t":29814},{"dx":256,"dy":-104,"t":29846},{"dx":168,"dy":-133,"t":29882},{"dx":128,"dy":-143,"t":29912},{"dx":101,"dy":-149,"t":29950},{"dx":86,"dy":-137,"t":29980},{"dx":24,"dy":-102,"t":30015},{"dx":-3,"dy":-72,"t":30045},{"dx":-39,"dy":-65,"t":30081},{"dx":-77,"dy":-60,"t":30111},{"dx":-33,"dy":-82,"t":30149},{"dx":-12,"dy":-105,"t":30180},{"dx":41,"dy":-126,"t":30221},{"dx":62,"dy":-130,"t":30233}],[{"dx":19,"dy":96,"t":31242},{"dx":7,"dy":114,"t":31273},{"dx":-15,"dy":60,"t":31309},{"dx":-8,"dy":38,"t":31339},{"dx":9,"dy":153,"t":31376},{"dx":27,"dy":265,"t":31407},{"dx":-49,"dy":354,"t":31443},{"dx":-110,"dy":311,"t":31473},{"dx":-111,"dy":245,"t":31509},{"dx":-162,"dy":165,"t":31540},{"dx":-170,"dy":152,"t":31577},{"dx":-190,"dy":163,"t":31607},{"dx":-198,"dy":134,"t":31642},{"dx":-210,"dy":129,"t":31673},{"dx":-127,"dy":102,"t":31709},{"dx":-91,"dy":110,"t":31740},{"dx":-51,"dy":113,"t":31777},{"dx":-35,"dy":117,"t":31806},{"dx":-32,"dy":117,"t":31841},{"dx":-43,"dy":83,"t":31871},{"dx":-47,"dy":115,"t":31907},{"dx":-70,"dy":93,"t":31938},{"dx":-98,"dy":105,"t":31976},{"dx":-135,"dy":120,"t":32007},{"dx":-105,"dy":113,"t":32044},{"dx":-100,"dy":119,"t":32074},{"dx":-53,"dy":85,"t":32111},{"dx":-40,"dy":59,"t":32142},{"dx":-37,"dy":-7,"t":32179},{"dx":-46,"dy":-42,"t":32210},{"dx":-54,"dy":48,"t":32247},{"dx":-50,"dy":78,"t":32277},{"dx":-82,"dy":128,"t":32314},{"dx":-108,"dy":144,"t":32344},{"dx":-190,"dy":185,"t":32382},{"dx":-208,"dy":191,"t":32411},{"dx":-190,"dy":195,"t":32448},{"dx":-181,"dy":194,"t":32478},{"dx":-122,"dy":185,"t":32514},{"dx":-100,"dy":178,"t":32544},{"dx":-66,"dy":186,"t":32581},{"dx":-78,"dy":225,"t":32612},{"dx":-65,"dy":276,"t":32648},{"dx":-34,"dy":287,"t":32685},{"dx":-47,"dy":259,"t":32722},{"dx":-76,"dy":238,"t":32755},{"dx":-150,"dy":213,"t":32793},{"dx":-198,"dy":226,"t":32823},{"dx":-179,"dy":210,"t":32859},{"dx":-199,"dy":221,"t":32890},{"dx":-121,"dy":168,"t":32926},{"dx":-116,"dy":125,"t":32956},{"dx":-117,"dy":161,"t":32993},{"dx":-119,"dy":184,"t":33023},{"dx":-109,"dy":78,"t":33059},{"dx":-82,"dy":34,"t":33090},{"dx":-110,"dy":122,"t":33126},{"dx":-144,"dy":157,"t":33156},{"dx":-171,"dy":184,"t":33195},{"dx":-190,"dy":189,"t":33228},{"dx":-143,"dy":181,"t":33252}],[{"dx":48,"dy":57,"t":34236},{"dx":11,"dy":23,"t":34295},{"dx":-31,"dy":95,"t":34326},{"dx":-67,"dy":88,"t":34398},{"dx":-106,"dy":98,"t":34425},{"dx":-39,"dy":155,"t":34462},{"dx":-62,"dy":161,"t":34492},{"dx":-71,"dy":72,"t":34529},{"dx":-58,"dy":5,"t":34560},{"dx":-30,"dy":-3,"t":34597},{"dx":-19,"dy":14,"t":34627},{"dx":-47,"dy":58,"t":34664},{"dx":-54,"dy":100,"t":34694},{"dx":6,"dy":107,"t":34731},{"dx":30,"dy":74,"t":34761},{"dx":92,"dy":57,"t":34797},{"dx":133,"dy":57,"t":34825},{"dx":189,"dy":-19,"t":34863},{"dx":199,"dy":2,"t":34892},{"dx":192,"dy":-25,"t":34929},{"dx":188,"dy":-37,"t":34959},{"dx":215,"dy":-38,"t":34996},{"dx":230,"dy":-15,"t":35024},{"dx":209,"dy":33,"t":35064},{"dx":164,"dy":67,"t":35094},{"dx":94,"dy":70,"t":35131},{"dx":55,"dy":58,"t":35161},{"dx":58,"dy":34,"t":35197},{"dx":72,"dy":54,"t":35227},{"dx":47,"dy":56,"t":35264},{"dx":46,"dy":65,"t":35294},{"dx":78,"dy":32,"t":35331},{"dx":91,"dy":4,"t":35363},{"dx":124,"dy":-6,"t":35399},{"dx":118,"dy":32,"t":35429},{"dx":114,"dy":-34,"t":35466},{"dx":124,"dy":-45,"t":35495},{"dx":78,"dy":-94,"t":35530},{"dx":47,"dy":-103,"t":35558},{"dx":88,"dy":-70,"t":35600},{"dx":119,"dy":-68,"t":35631},{"dx":142,"dy":-69,"t":35671},{"dx":152,"dy":-73,"t":35700},{"dx":90,"dy":-43,"t":35741},{"dx":90,"dy":-11,"t":35770},{"dx":26,"dy":24,"t":35811},{"dx":24,"dy":39,"t":35846},{"dx":36,"dy":37,"t":35883},{"dx":46,"dy":25,"t":35911},{"dx":30,"dy":1,"t":35948},{"dx":54,"dy":16,"t":35986},{"dx":29,"dy":19,"t":36021},{"dx":-1,"dy":39,"t":36050},{"dx":29,"dy":84,"t":36087},{"dx":35,"dy":112,"t":36117},{"dx":78,"dy":127,"t":36152},{"dx":107,"dy":129,"t":36181},{"dx":173,"dy":45,"t":36218},{"dx":190,"dy":9,"t":36254},{"dx":227,"dy":-25,"t":36279}],[{"dx":-126,"dy":38,"t":37292},{"dx":-121,"dy":53,"t":37323},{"dx":-129,"dy":57,"t":37360},{"dx":-134,"dy":57,"t":37390},{"dx":-170,"dy":61,"t":37425},{"dx":-196,"dy":76,"t":37454},{"dx":-202,"dy":80,"t":37491},{"dx":-208,"dy":68,"t":37522},{"dx":-209,"dy":78,"t":37559},{"dx":-207,"dy":70,"t":37593},{"dx":-149,"dy":25,"t":37628},{"dx":-127,"dy":18,"t":37659},{"dx":-95,"dy":0,"t":37695},{"dx":-90,"dy":-2,"t":37726},{"dx":-80,"dy":11,"t":37761},{"dx":-80,"dy":26,"t":37791},{"dx":-37,"dy":30,"t":37828},{"dx":-37,"dy":52,"t":37858},{"dx":-17,"dy":99,"t":37896},{"dx":-4,"dy":129,"t":37926},{"dx":-30,"dy":148,"t":37964},{"dx":-45,"dy":150,"t":37994},{"dx":-96,"dy":131,"t":38032},{"dx":-119,"dy":101,"t":38061},{"dx":-54,"dy":57,"t":38100},{"dx":-33,"dy":50,"t":38130},{"dx":-33,"dy":39,"t":38168},{"dx":-48,"dy":35,"t":38206},{"dx":-40,"dy":18,"t":38244},{"dx":-18,"dy":9,"t":38276},{"dx":26,"dy":-41,"t":38313},{"dx":34,"dy":-65,"t":38343},{"dx":-8,"dy":-23,"t":38379},{"dx":-28,"dy":1,"t":38409},{"dx":12,"dy":-68,"t":38446},{"dx":28,"dy":-102,"t":38476},{"dx":-31,"dy":-45,"t":38513},{"dx":-36,"dy":-15,"t":38543},{"dx":12,"dy":-28,"t":38583},{"dx":38,"dy":-26,"t":38613},{"dx":3,"dy":11,"t":38649},{"dx":-7,"dy":12,"t":38677},{"dx":-19,"dy":9,"t":38714},{"dx":-46,"dy":5,"t":38742},{"dx":-66,"dy":-14,"t":38779},{"dx":-82,"dy":-1,"t":38806},{"dx":-81,"dy":-10,"t":38843},{"dx":-67,"dy":-10,"t":38871},{"dx":-51,"dy":26,"t":38907},{"dx":-50,"dy":45,"t":38936},{"dx":-33,"dy":36,"t":38972},{"dx":-36,"dy":18,"t":39001},{"dx":-57,"dy":-38,"t":39038},{"dx":-57,"dy":-48,"t":39069},{"dx":-40,"dy":-50,"t":39107},{"dx":-25,"dy":-45,"t":39136},{"dx":-8,"dy":-78,"t":39172},{"dx":5,"dy":-99,"t":39202},{"dx":16,"dy":-84,"t":39239}]],"percent_in_roi":[85,58.333333333333336,80,9.836065573770492,0,0,1.639344262295082,0,0,26.666666666666668,32.78688524590164,73.33333333333333,81.35593220338984],"average_offset":[{"x":89.68333333333334,"y":-9.333333333333334,"r":94.05755726902484},{"x":-103.56666666666666,"y":-79.03333333333333,"r":118.4292947130761},{"x":43.78333333333333,"y":93.61666666666666,"r":74.8262116823995},{"x":26.262295081967213,"y":194.21311475409837,"r":50.55673119444586},{"x":-22.766666666666666,"y":443.31666666666666,"r":78.89598691462487},{"x":298.75,"y":260.35,"r":88.36958334156239},{"x":62.78688524590164,"y":260.4590163934426,"r":83.47814310490466},{"x":429.65,"y":354.65,"r":110.62613321722935},{"x":362.24590163934425,"y":-116.49180327868852,"r":101.64373998955747},{"x":179.05,"y":-69.36666666666666,"r":189.97256117017378},{"x":-99.50819672131148,"y":151.327868852459,"r":88.47619958519638},{"x":70.53333333333333,"y":27.6,"r":141.1502919278419},{"x":-60.813559322033896,"y":17.576271186440678,"r":66.60109482326526}],"samples_per_sec":"29.53","clicks":15,"pattern":"spread","trial_type":"webgazer-validate","trial_index":13,"time_elapsed":178315,"internal_node_id":"0.0-10.0-3.0","validation_points":[[37.5,62.5],[85,85],[50,50],[62.5,37.5],[85,15],[25,25],[62.5,62.5],[37.5,37.5],[15,85],[25,75],[75,25],[15,15],[75,75]],"user_agent":"Mozilla/5.0 (Windows NT 10.0; Win64; x64) AppleWebKit/537.36 (KHTML, like Gecko) Chrome/89.0.4389.82 Safari/537.36","screen_width_px":1280,"screen_height_px":720},{"rt":2431.669999990845,"stimulus":"\n      <p>Round complete.</p>\n      <p>You can move a little bit, but please try to return you head to the same general location before continuing.</p>\n    ","response":0,"trial_type":"html-button-response","trial_index":14,"time_elapsed":180748,"internal_node_id":"0.0-10.0-4.0","user_agent":"Mozilla/5.0 (Windows NT 10.0; Win64; x64) AppleWebKit/537.36 (KHTML, like Gecko) Chrome/89.0.4389.82 Safari/537.36","screen_width_px":1280,"screen_height_px":720},{"trial_type":"webgazer-init-camera","trial_index":15,"time_elapsed":196092,"internal_node_id":"0.0-10.0-5.0","user_agent":"Mozilla/5.0 (Windows NT 10.0; Win64; x64) AppleWebKit/537.36 (KHTML, like Gecko) Chrome/89.0.4389.82 Safari/537.36","screen_width_px":1280,"screen_height_px":720},{"rt":1556.9899999973131,"stimulus":"\n      <p>Calibration phase next.</p>\n      <p>Click on the dots.</p>\n    ","response":0,"trial_type":"html-button-response","trial_index":16,"time_elapsed":197651,"internal_node_id":"0.0-10.0-0.1","user_agent":"Mozilla/5.0 (Windows NT 10.0; Win64; x64) AppleWebKit/537.36 (KHTML, like Gecko) Chrome/89.0.4389.82 Safari/537.36","screen_width_px":1280,"screen_height_px":720},{"trial_type":"webgazer-calibrate","trial_index":17,"time_elapsed":229498,"internal_node_id":"0.0-10.0-1.1","user_agent":"Mozilla/5.0 (Windows NT 10.0; Win64; x64) AppleWebKit/537.36 (KHTML, like Gecko) Chrome/89.0.4389.82 Safari/537.36","screen_width_px":1280,"screen_height_px":720},{"rt":1188.0649999948218,"stimulus":"\n      <p>Validation phase next.</p>\n      <p>Look at the dots.</p>\n    ","response":0,"trial_type":"html-button-response","trial_index":18,"time_elapsed":230688,"internal_node_id":"0.0-10.0-2.1","user_agent":"Mozilla/5.0 (Windows NT 10.0; Win64; x64) AppleWebKit/537.36 (KHTML, like Gecko) Chrome/89.0.4389.82 Safari/537.36","screen_width_px":1280,"screen_height_px":720},{"raw_gaze":[[{"dx":6,"dy":-18,"t":1082},{"dx":3,"dy":-47,"t":1119},{"dx":-83,"dy":-71,"t":1158},{"dx":-136,"dy":-79,"t":1187},{"dx":-166,"dy":-54,"t":1223},{"dx":-169,"dy":-25,"t":1255},{"dx":-174,"dy":-3,"t":1292},{"dx":-177,"dy":11,"t":1323},{"dx":-123,"dy":17,"t":1359},{"dx":-103,"dy":17,"t":1390},{"dx":-103,"dy":17,"t":1426},{"dx":-102,"dy":3,"t":1457},{"dx":-129,"dy":-40,"t":1493},{"dx":-137,"dy":-65,"t":1524},{"dx":-129,"dy":-79,"t":1562},{"dx":-118,"dy":-82,"t":1592},{"dx":-138,"dy":-64,"t":1629},{"dx":-137,"dy":-61,"t":1658},{"dx":-57,"dy":-109,"t":1693},{"dx":20,"dy":-149,"t":1723},{"dx":-2,"dy":-106,"t":1758},{"dx":3,"dy":-100,"t":1791},{"dx":-9,"dy":-71,"t":1829},{"dx":18,"dy":-70,"t":1859},{"dx":-34,"dy":-56,"t":1896},{"dx":-59,"dy":-75,"t":1927},{"dx":-72,"dy":-21,"t":1964},{"dx":-72,"dy":3,"t":1994},{"dx":-90,"dy":68,"t":2033},{"dx":-102,"dy":88,"t":2063},{"dx":-91,"dy":50,"t":2099},{"dx":-93,"dy":22,"t":2129},{"dx":-103,"dy":-4,"t":2165},{"dx":-108,"dy":-4,"t":2196},{"dx":-106,"dy":13,"t":2233},{"dx":-99,"dy":25,"t":2263},{"dx":-137,"dy":33,"t":2300},{"dx":-160,"dy":39,"t":2331},{"dx":-126,"dy":70,"t":2368},{"dx":-96,"dy":86,"t":2399},{"dx":-97,"dy":71,"t":2437},{"dx":-106,"dy":66,"t":2468},{"dx":-102,"dy":17,"t":2505},{"dx":-88,"dy":-22,"t":2535},{"dx":-72,"dy":-62,"t":2571},{"dx":-70,"dy":-71,"t":2599},{"dx":-80,"dy":-45,"t":2637},{"dx":-89,"dy":-16,"t":2667},{"dx":-93,"dy":-3,"t":2704},{"dx":-63,"dy":33,"t":2734},{"dx":-35,"dy":22,"t":2770},{"dx":-25,"dy":47,"t":2800},{"dx":-40,"dy":8,"t":2838},{"dx":-42,"dy":-27,"t":2867},{"dx":-87,"dy":-29,"t":2902},{"dx":-132,"dy":-51,"t":2939},{"dx":-128,"dy":-28,"t":2978},{"dx":-88,"dy":-3,"t":3009},{"dx":-22,"dy":13,"t":3050},{"dx":21,"dy":35,"t":3065}],[{"dx":30,"dy":-70,"t":4075},{"dx":67,"dy":-126,"t":4107},{"dx":102,"dy":-118,"t":4144},{"dx":76,"dy":-132,"t":4173},{"dx":36,"dy":-96,"t":4210},{"dx":8,"dy":-77,"t":4240},{"dx":58,"dy":-66,"t":4278},{"dx":95,"dy":-44,"t":4314},{"dx":87,"dy":-9,"t":4352},{"dx":79,"dy":15,"t":4382},{"dx":216,"dy":73,"t":4417},{"dx":355,"dy":120,"t":4447},{"dx":398,"dy":221,"t":4486},{"dx":373,"dy":244,"t":4518},{"dx":328,"dy":174,"t":4554},{"dx":310,"dy":105,"t":4585},{"dx":265,"dy":98,"t":4621},{"dx":260,"dy":112,"t":4653},{"dx":257,"dy":130,"t":4692},{"dx":266,"dy":124,"t":4754},{"dx":274,"dy":169,"t":4789},{"dx":303,"dy":223,"t":4818},{"dx":244,"dy":143,"t":4857},{"dx":227,"dy":105,"t":4888},{"dx":158,"dy":62,"t":4924},{"dx":117,"dy":42,"t":4962},{"dx":72,"dy":7,"t":5004},{"dx":52,"dy":-9,"t":5045},{"dx":71,"dy":-7,"t":5081},{"dx":100,"dy":12,"t":5113},{"dx":190,"dy":46,"t":5149},{"dx":245,"dy":65,"t":5180},{"dx":215,"dy":90,"t":5215},{"dx":211,"dy":99,"t":5245},{"dx":186,"dy":37,"t":5280},{"dx":178,"dy":10,"t":5310},{"dx":113,"dy":3,"t":5349},{"dx":58,"dy":3,"t":5380},{"dx":81,"dy":17,"t":5416},{"dx":71,"dy":25,"t":5446},{"dx":102,"dy":31,"t":5483},{"dx":126,"dy":39,"t":5513},{"dx":146,"dy":53,"t":5550},{"dx":167,"dy":76,"t":5580},{"dx":161,"dy":30,"t":5616},{"dx":149,"dy":-10,"t":5648},{"dx":152,"dy":-25,"t":5682},{"dx":172,"dy":-27,"t":5712},{"dx":144,"dy":-56,"t":5751},{"dx":99,"dy":-58,"t":5782},{"dx":106,"dy":1,"t":5819},{"dx":122,"dy":23,"t":5850},{"dx":77,"dy":17,"t":5887},{"dx":76,"dy":14,"t":5916},{"dx":79,"dy":34,"t":5954},{"dx":79,"dy":43,"t":5985},{"dx":98,"dy":-1,"t":6023},{"dx":112,"dy":-19,"t":6053},{"dx":77,"dy":-21,"t":6078}],[{"dx":-31,"dy":-12,"t":7087},{"dx":-8,"dy":-14,"t":7124},{"dx":5,"dy":-9,"t":7155},{"dx":15,"dy":-44,"t":7191},{"dx":10,"dy":-55,"t":7225},{"dx":-41,"dy":-62,"t":7262},{"dx":-40,"dy":-61,"t":7292},{"dx":-25,"dy":-75,"t":7329},{"dx":-38,"dy":-103,"t":7359},{"dx":-27,"dy":-134,"t":7397},{"dx":-16,"dy":-135,"t":7428},{"dx":-24,"dy":-155,"t":7463},{"dx":-28,"dy":-175,"t":7493},{"dx":-14,"dy":-127,"t":7529},{"dx":-10,"dy":-95,"t":7560},{"dx":14,"dy":-45,"t":7596},{"dx":23,"dy":-12,"t":7627},{"dx":33,"dy":-25,"t":7664},{"dx":35,"dy":-46,"t":7696},{"dx":19,"dy":-98,"t":7731},{"dx":4,"dy":-126,"t":7761},{"dx":-15,"dy":-201,"t":7798},{"dx":-38,"dy":-239,"t":7835},{"dx":-34,"dy":-237,"t":7872},{"dx":-28,"dy":-214,"t":7903},{"dx":-45,"dy":-91,"t":7939},{"dx":-45,"dy":-17,"t":7970},{"dx":-54,"dy":32,"t":8008},{"dx":-45,"dy":53,"t":8038},{"dx":-31,"dy":25,"t":8074},{"dx":-37,"dy":4,"t":8104},{"dx":-37,"dy":-52,"t":8140},{"dx":-54,"dy":-76,"t":8171},{"dx":-57,"dy":-49,"t":8208},{"dx":-71,"dy":-48,"t":8239},{"dx":-56,"dy":-25,"t":8275},{"dx":-33,"dy":-8,"t":8305},{"dx":-24,"dy":36,"t":8340},{"dx":-34,"dy":61,"t":8379},{"dx":-23,"dy":-8,"t":8418},{"dx":-24,"dy":-60,"t":8448},{"dx":-23,"dy":-111,"t":8483},{"dx":-8,"dy":-142,"t":8512},{"dx":18,"dy":-161,"t":8549},{"dx":30,"dy":-153,"t":8580},{"dx":38,"dy":-173,"t":8617},{"dx":33,"dy":-181,"t":8647},{"dx":60,"dy":-170,"t":8685},{"dx":107,"dy":-124,"t":8714},{"dx":99,"dy":-122,"t":8751},{"dx":102,"dy":-132,"t":8780},{"dx":42,"dy":-136,"t":8817},{"dx":16,"dy":-147,"t":8847},{"dx":1,"dy":-133,"t":8881},{"dx":-7,"dy":-108,"t":8912},{"dx":-6,"dy":-70,"t":8948},{"dx":-9,"dy":-42,"t":8980},{"dx":-31,"dy":-54,"t":9016},{"dx":-51,"dy":-72,"t":9047},{"dx":-54,"dy":-108,"t":9086},{"dx":-41,"dy":-125,"t":9100}],[{"dx":86,"dy":-92,"t":10104},{"dx":67,"dy":-68,"t":10166},{"dx":65,"dy":-54,"t":10196},{"dx":24,"dy":-54,"t":10233},{"dx":6,"dy":-34,"t":10263},{"dx":-13,"dy":2,"t":10296},{"dx":-20,"dy":8,"t":10325},{"dx":28,"dy":-13,"t":10372},{"dx":60,"dy":-31,"t":10428},{"dx":39,"dy":-45,"t":10464},{"dx":30,"dy":-64,"t":10493},{"dx":68,"dy":-30,"t":10529},{"dx":102,"dy":13,"t":10559},{"dx":96,"dy":29,"t":10594},{"dx":88,"dy":30,"t":10626},{"dx":36,"dy":-13,"t":10662},{"dx":11,"dy":-33,"t":10694},{"dx":0,"dy":-65,"t":10730},{"dx":-13,"dy":-77,"t":10760},{"dx":54,"dy":-60,"t":10798},{"dx":100,"dy":-45,"t":10829},{"dx":130,"dy":-37,"t":10866},{"dx":134,"dy":-19,"t":10896},{"dx":72,"dy":-6,"t":10932},{"dx":49,"dy":9,"t":10964},{"dx":24,"dy":-14,"t":11001},{"dx":19,"dy":-37,"t":11031},{"dx":9,"dy":-42,"t":11068},{"dx":-8,"dy":-55,"t":11097},{"dx":-5,"dy":-34,"t":11132},{"dx":2,"dy":7,"t":11164},{"dx":19,"dy":-17,"t":11200},{"dx":29,"dy":-51,"t":11230},{"dx":50,"dy":-62,"t":11267},{"dx":62,"dy":-67,"t":11297},{"dx":30,"dy":-17,"t":11334},{"dx":20,"dy":-19,"t":11365},{"dx":9,"dy":-20,"t":11402},{"dx":15,"dy":-25,"t":11432},{"dx":9,"dy":-55,"t":11469},{"dx":3,"dy":-57,"t":11500},{"dx":3,"dy":-71,"t":11536},{"dx":12,"dy":-66,"t":11565},{"dx":-3,"dy":-93,"t":11601},{"dx":4,"dy":-95,"t":11632},{"dx":14,"dy":-130,"t":11668},{"dx":45,"dy":-150,"t":11699},{"dx":84,"dy":-132,"t":11735},{"dx":109,"dy":-103,"t":11764},{"dx":79,"dy":-29,"t":11800},{"dx":67,"dy":0,"t":11830},{"dx":49,"dy":49,"t":11870},{"dx":55,"dy":69,"t":11904},{"dx":54,"dy":76,"t":11942},{"dx":50,"dy":77,"t":11973},{"dx":34,"dy":40,"t":12010},{"dx":29,"dy":28,"t":12041},{"dx":37,"dy":-39,"t":12080},{"dx":43,"dy":-79,"t":12112},{"dx":57,"dy":-67,"t":12136}],[{"dx":65,"dy":106,"t":13159},{"dx":69,"dy":107,"t":13190},{"dx":40,"dy":59,"t":13228},{"dx":48,"dy":25,"t":13258},{"dx":74,"dy":2,"t":13295},{"dx":59,"dy":11,"t":13326},{"dx":36,"dy":26,"t":13363},{"dx":-6,"dy":25,"t":13399},{"dx":49,"dy":-9,"t":13438},{"dx":49,"dy":-14,"t":13471},{"dx":80,"dy":27,"t":13508},{"dx":109,"dy":58,"t":13543},{"dx":48,"dy":25,"t":13580},{"dx":4,"dy":-4,"t":13608},{"dx":-26,"dy":-28,"t":13643},{"dx":-19,"dy":-26,"t":13680},{"dx":61,"dy":67,"t":13717},{"dx":100,"dy":107,"t":13747},{"dx":95,"dy":47,"t":13785},{"dx":85,"dy":16,"t":13814},{"dx":65,"dy":-31,"t":13852},{"dx":52,"dy":-43,"t":13881},{"dx":-15,"dy":-82,"t":13917},{"dx":-29,"dy":-87,"t":13947},{"dx":-12,"dy":-43,"t":13983},{"dx":4,"dy":-5,"t":14014},{"dx":-31,"dy":8,"t":14051},{"dx":-28,"dy":15,"t":14081},{"dx":-62,"dy":8,"t":14119},{"dx":-68,"dy":16,"t":14149},{"dx":-75,"dy":-12,"t":14187},{"dx":-102,"dy":-16,"t":14217},{"dx":-86,"dy":-12,"t":14254},{"dx":-63,"dy":-2,"t":14285},{"dx":-33,"dy":23,"t":14322},{"dx":16,"dy":59,"t":14354},{"dx":31,"dy":2,"t":14391},{"dx":24,"dy":-13,"t":14421},{"dx":68,"dy":-82,"t":14456},{"dx":124,"dy":-122,"t":14486},{"dx":138,"dy":-130,"t":14521},{"dx":139,"dy":-128,"t":14552},{"dx":172,"dy":-76,"t":14589},{"dx":172,"dy":-29,"t":14619},{"dx":90,"dy":14,"t":14655},{"dx":79,"dy":62,"t":14685},{"dx":55,"dy":93,"t":14720},{"dx":42,"dy":113,"t":14751},{"dx":71,"dy":88,"t":14788},{"dx":112,"dy":34,"t":14818},{"dx":137,"dy":68,"t":14854},{"dx":139,"dy":55,"t":14885},{"dx":104,"dy":65,"t":14922},{"dx":93,"dy":88,"t":14959},{"dx":99,"dy":158,"t":14998},{"dx":112,"dy":200,"t":15028},{"dx":89,"dy":96,"t":15064},{"dx":50,"dy":56,"t":15100},{"dx":52,"dy":-20,"t":15139},{"dx":47,"dy":-56,"t":15151}],[{"dx":65,"dy":65,"t":16149},{"dx":62,"dy":99,"t":16208},{"dx":89,"dy":128,"t":16238},{"dx":39,"dy":58,"t":16278},{"dx":26,"dy":33,"t":16311},{"dx":8,"dy":-35,"t":16350},{"dx":18,"dy":-41,"t":16385},{"dx":24,"dy":-60,"t":16422},{"dx":37,"dy":-61,"t":16454},{"dx":64,"dy":-50,"t":16495},{"dx":57,"dy":-60,"t":16530},{"dx":66,"dy":5,"t":16566},{"dx":55,"dy":40,"t":16596},{"dx":-2,"dy":68,"t":16632},{"dx":-21,"dy":91,"t":16662},{"dx":-34,"dy":33,"t":16699},{"dx":-29,"dy":28,"t":16727},{"dx":16,"dy":-12,"t":16764},{"dx":27,"dy":-54,"t":16795},{"dx":60,"dy":-43,"t":16830},{"dx":100,"dy":-1,"t":16860},{"dx":112,"dy":50,"t":16897},{"dx":115,"dy":63,"t":16927},{"dx":67,"dy":75,"t":16963},{"dx":47,"dy":97,"t":16995},{"dx":45,"dy":15,"t":17035},{"dx":27,"dy":-29,"t":17067},{"dx":71,"dy":-44,"t":17107},{"dx":22,"dy":-61,"t":17148},{"dx":39,"dy":-51,"t":17186},{"dx":55,"dy":-50,"t":17217},{"dx":68,"dy":-5,"t":17254},{"dx":60,"dy":33,"t":17284},{"dx":66,"dy":63,"t":17322},{"dx":110,"dy":145,"t":17354},{"dx":69,"dy":82,"t":17390},{"dx":57,"dy":27,"t":17420},{"dx":60,"dy":23,"t":17456},{"dx":54,"dy":17,"t":17487},{"dx":74,"dy":44,"t":17521},{"dx":91,"dy":59,"t":17552},{"dx":132,"dy":94,"t":17588},{"dx":159,"dy":130,"t":17619},{"dx":101,"dy":132,"t":17655},{"dx":69,"dy":156,"t":17685},{"dx":17,"dy":80,"t":17722},{"dx":0,"dy":23,"t":17752},{"dx":12,"dy":-44,"t":17790},{"dx":39,"dy":-48,"t":17820},{"dx":24,"dy":-9,"t":17857},{"dx":9,"dy":-9,"t":17892},{"dx":11,"dy":14,"t":17931},{"dx":24,"dy":35,"t":17959},{"dx":49,"dy":32,"t":17998},{"dx":66,"dy":41,"t":18032},{"dx":48,"dy":-58,"t":18067},{"dx":71,"dy":-96,"t":18098},{"dx":134,"dy":-76,"t":18135},{"dx":150,"dy":-87,"t":18167},{"dx":153,"dy":-87,"t":18196}],[{"dx":24,"dy":88,"t":19182},{"dx":30,"dy":64,"t":19242},{"dx":24,"dy":76,"t":19272},{"dx":80,"dy":157,"t":19309},{"dx":78,"dy":185,"t":19342},{"dx":95,"dy":251,"t":19381},{"dx":124,"dy":286,"t":19411},{"dx":61,"dy":286,"t":19449},{"dx":40,"dy":270,"t":19484},{"dx":43,"dy":194,"t":19522},{"dx":71,"dy":160,"t":19554},{"dx":121,"dy":87,"t":19590},{"dx":147,"dy":39,"t":19620},{"dx":152,"dy":58,"t":19656},{"dx":129,"dy":54,"t":19687},{"dx":94,"dy":56,"t":19724},{"dx":110,"dy":75,"t":19754},{"dx":73,"dy":108,"t":19790},{"dx":78,"dy":135,"t":19820},{"dx":136,"dy":237,"t":19856},{"dx":199,"dy":287,"t":19885},{"dx":345,"dy":398,"t":19921},{"dx":440,"dy":455,"t":19951},{"dx":501,"dy":619,"t":19989},{"dx":518,"dy":684,"t":20020},{"dx":452,"dy":671,"t":20057},{"dx":386,"dy":640,"t":20086},{"dx":305,"dy":563,"t":20123},{"dx":270,"dy":509,"t":20153},{"dx":239,"dy":392,"t":20190},{"dx":244,"dy":394,"t":20221},{"dx":196,"dy":325,"t":20256},{"dx":189,"dy":288,"t":20284},{"dx":159,"dy":255,"t":20319},{"dx":104,"dy":231,"t":20357},{"dx":70,"dy":217,"t":20400},{"dx":67,"dy":221,"t":20436},{"dx":112,"dy":238,"t":20473},{"dx":132,"dy":217,"t":20503},{"dx":179,"dy":248,"t":20538},{"dx":172,"dy":253,"t":20569},{"dx":102,"dy":220,"t":20606},{"dx":78,"dy":177,"t":20636},{"dx":61,"dy":143,"t":20673},{"dx":49,"dy":118,"t":20702},{"dx":22,"dy":104,"t":20738},{"dx":25,"dy":92,"t":20769},{"dx":1,"dy":107,"t":20808},{"dx":-7,"dy":156,"t":20843},{"dx":18,"dy":205,"t":20881},{"dx":63,"dy":183,"t":20909},{"dx":107,"dy":198,"t":20947},{"dx":88,"dy":161,"t":20986},{"dx":99,"dy":169,"t":21025},{"dx":114,"dy":158,"t":21058},{"dx":115,"dy":222,"t":21095},{"dx":114,"dy":246,"t":21127},{"dx":141,"dy":325,"t":21167},{"dx":119,"dy":340,"t":21204},{"dx":109,"dy":297,"t":21230}],[{"dx":-210,"dy":202,"t":22219},{"dx":-227,"dy":215,"t":22279},{"dx":-246,"dy":211,"t":22309},{"dx":-259,"dy":166,"t":22347},{"dx":-262,"dy":157,"t":22378},{"dx":-238,"dy":229,"t":22415},{"dx":-226,"dy":293,"t":22446},{"dx":-203,"dy":293,"t":22482},{"dx":-196,"dy":264,"t":22512},{"dx":-85,"dy":210,"t":22549},{"dx":-38,"dy":202,"t":22580},{"dx":-70,"dy":223,"t":22617},{"dx":-108,"dy":263,"t":22646},{"dx":-141,"dy":283,"t":22682},{"dx":-168,"dy":276,"t":22713},{"dx":-177,"dy":266,"t":22751},{"dx":-167,"dy":282,"t":22786},{"dx":-172,"dy":336,"t":22822},{"dx":-181,"dy":374,"t":22855},{"dx":-200,"dy":373,"t":22892},{"dx":-224,"dy":368,"t":22921},{"dx":-274,"dy":357,"t":22958},{"dx":-285,"dy":334,"t":22988},{"dx":-285,"dy":298,"t":23025},{"dx":-254,"dy":266,"t":23061},{"dx":-201,"dy":220,"t":23099},{"dx":-198,"dy":186,"t":23129},{"dx":-196,"dy":184,"t":23165},{"dx":-211,"dy":151,"t":23196},{"dx":-179,"dy":176,"t":23233},{"dx":-167,"dy":208,"t":23264},{"dx":-184,"dy":201,"t":23298},{"dx":-182,"dy":192,"t":23328},{"dx":-161,"dy":169,"t":23365},{"dx":-161,"dy":157,"t":23396},{"dx":-157,"dy":161,"t":23431},{"dx":-166,"dy":163,"t":23461},{"dx":-175,"dy":115,"t":23497},{"dx":-176,"dy":122,"t":23527},{"dx":-169,"dy":114,"t":23564},{"dx":-163,"dy":102,"t":23595},{"dx":-139,"dy":120,"t":23631},{"dx":-120,"dy":115,"t":23661},{"dx":-149,"dy":153,"t":23696},{"dx":-171,"dy":143,"t":23727},{"dx":-205,"dy":201,"t":23764},{"dx":-228,"dy":198,"t":23801},{"dx":-234,"dy":232,"t":23838},{"dx":-245,"dy":252,"t":23867},{"dx":-236,"dy":301,"t":23904},{"dx":-222,"dy":333,"t":23935},{"dx":-232,"dy":338,"t":23974},{"dx":-221,"dy":383,"t":24005},{"dx":-240,"dy":321,"t":24046},{"dx":-222,"dy":304,"t":24081},{"dx":-215,"dy":265,"t":24119},{"dx":-222,"dy":282,"t":24151},{"dx":-220,"dy":283,"t":24188},{"dx":-215,"dy":282,"t":24223},{"dx":-185,"dy":324,"t":24250}],[{"dx":-161,"dy":149,"t":25231},{"dx":-156,"dy":149,"t":25291},{"dx":-151,"dy":155,"t":25322},{"dx":-139,"dy":176,"t":25360},{"dx":-132,"dy":191,"t":25390},{"dx":-151,"dy":215,"t":25427},{"dx":-172,"dy":225,"t":25456},{"dx":-192,"dy":141,"t":25492},{"dx":-206,"dy":145,"t":25523},{"dx":-228,"dy":144,"t":25560},{"dx":-236,"dy":141,"t":25591},{"dx":-259,"dy":105,"t":25627},{"dx":-224,"dy":120,"t":25658},{"dx":-225,"dy":139,"t":25698},{"dx":-227,"dy":131,"t":25729},{"dx":-231,"dy":79,"t":25764},{"dx":-219,"dy":66,"t":25801},{"dx":-193,"dy":104,"t":25840},{"dx":-158,"dy":157,"t":25870},{"dx":-161,"dy":175,"t":25908},{"dx":-154,"dy":174,"t":25939},{"dx":-163,"dy":166,"t":25977},{"dx":-169,"dy":179,"t":26013},{"dx":-195,"dy":174,"t":26050},{"dx":-201,"dy":173,"t":26079},{"dx":-185,"dy":137,"t":26116},{"dx":-178,"dy":106,"t":26148},{"dx":-197,"dy":42,"t":26184},{"dx":-203,"dy":30,"t":26214},{"dx":-210,"dy":14,"t":26251},{"dx":-210,"dy":-8,"t":26282},{"dx":-221,"dy":-17,"t":26317},{"dx":-230,"dy":-9,"t":26347},{"dx":-218,"dy":17,"t":26383},{"dx":-202,"dy":33,"t":26413},{"dx":-169,"dy":79,"t":26451},{"dx":-154,"dy":106,"t":26482},{"dx":-155,"dy":107,"t":26520},{"dx":-166,"dy":100,"t":26550},{"dx":-192,"dy":65,"t":26587},{"dx":-205,"dy":52,"t":26617},{"dx":-159,"dy":112,"t":26653},{"dx":-144,"dy":165,"t":26684},{"dx":-109,"dy":241,"t":26719},{"dx":-84,"dy":280,"t":26748},{"dx":-117,"dy":251,"t":26784},{"dx":-143,"dy":243,"t":26815},{"dx":-187,"dy":266,"t":26853},{"dx":-211,"dy":248,"t":26883},{"dx":-207,"dy":236,"t":26920},{"dx":-190,"dy":256,"t":26983},{"dx":-147,"dy":277,"t":27016},{"dx":-133,"dy":273,"t":27049},{"dx":-145,"dy":220,"t":27087},{"dx":-117,"dy":249,"t":27117},{"dx":-130,"dy":205,"t":27152},{"dx":-153,"dy":172,"t":27183},{"dx":-183,"dy":131,"t":27218},{"dx":-197,"dy":121,"t":27253},{"dx":-154,"dy":195,"t":27279}],[{"dx":-104,"dy":123,"t":28288},{"dx":-87,"dy":115,"t":28318},{"dx":-65,"dy":64,"t":28355},{"dx":-58,"dy":45,"t":28386},{"dx":-109,"dy":115,"t":28422},{"dx":-150,"dy":153,"t":28454},{"dx":-174,"dy":86,"t":28492},{"dx":-182,"dy":76,"t":28522},{"dx":-156,"dy":41,"t":28557},{"dx":-150,"dy":11,"t":28587},{"dx":-148,"dy":-17,"t":28623},{"dx":-159,"dy":-48,"t":28653},{"dx":-148,"dy":-91,"t":28690},{"dx":-151,"dy":-83,"t":28721},{"dx":-118,"dy":-14,"t":28757},{"dx":-116,"dy":23,"t":28786},{"dx":-103,"dy":67,"t":28821},{"dx":-101,"dy":87,"t":28852},{"dx":-34,"dy":72,"t":28888},{"dx":-11,"dy":66,"t":28920},{"dx":-93,"dy":70,"t":28956},{"dx":-151,"dy":73,"t":28986},{"dx":-110,"dy":5,"t":29022},{"dx":-61,"dy":-24,"t":29054},{"dx":-77,"dy":-25,"t":29090},{"dx":-90,"dy":-34,"t":29122},{"dx":-93,"dy":-34,"t":29157},{"dx":-94,"dy":-43,"t":29194},{"dx":-172,"dy":13,"t":29232},{"dx":-176,"dy":17,"t":29263},{"dx":-163,"dy":3,"t":29300},{"dx":-157,"dy":-4,"t":29332},{"dx":-94,"dy":-25,"t":29368},{"dx":-61,"dy":-46,"t":29398},{"dx":-94,"dy":-34,"t":29434},{"dx":-137,"dy":-30,"t":29470},{"dx":-209,"dy":-46,"t":29509},{"dx":-237,"dy":-62,"t":29539},{"dx":-258,"dy":-14,"t":29575},{"dx":-262,"dy":16,"t":29604},{"dx":-242,"dy":26,"t":29640},{"dx":-222,"dy":12,"t":29671},{"dx":-226,"dy":49,"t":29708},{"dx":-219,"dy":80,"t":29738},{"dx":-176,"dy":87,"t":29776},{"dx":-133,"dy":90,"t":29806},{"dx":-110,"dy":46,"t":29842},{"dx":-103,"dy":14,"t":29872},{"dx":-127,"dy":57,"t":29910},{"dx":-117,"dy":81,"t":29940},{"dx":-112,"dy":57,"t":29977},{"dx":-106,"dy":39,"t":30008},{"dx":-141,"dy":-14,"t":30044},{"dx":-144,"dy":-16,"t":30075},{"dx":-116,"dy":-23,"t":30113},{"dx":-103,"dy":-14,"t":30143},{"dx":-82,"dy":-32,"t":30179},{"dx":-77,"dy":-48,"t":30209},{"dx":-112,"dy":-7,"t":30246},{"dx":-135,"dy":18,"t":30281},{"dx":-143,"dy":54,"t":30306}],[{"dx":65,"dy":29,"t":31327},{"dx":61,"dy":26,"t":31357},{"dx":57,"dy":-30,"t":31392},{"dx":29,"dy":-68,"t":31423},{"dx":116,"dy":-9,"t":31460},{"dx":121,"dy":34,"t":31498},{"dx":193,"dy":59,"t":31535},{"dx":228,"dy":68,"t":31565},{"dx":289,"dy":82,"t":31600},{"dx":304,"dy":87,"t":31633},{"dx":257,"dy":41,"t":31668},{"dx":224,"dy":26,"t":31697},{"dx":157,"dy":12,"t":31734},{"dx":105,"dy":-21,"t":31764},{"dx":127,"dy":-55,"t":31800},{"dx":126,"dy":-54,"t":31830},{"dx":137,"dy":19,"t":31865},{"dx":153,"dy":66,"t":31895},{"dx":240,"dy":75,"t":31932},{"dx":294,"dy":73,"t":31962},{"dx":296,"dy":65,"t":31999},{"dx":311,"dy":64,"t":32030},{"dx":259,"dy":39,"t":32065},{"dx":239,"dy":41,"t":32095},{"dx":178,"dy":8,"t":32131},{"dx":126,"dy":-24,"t":32163},{"dx":93,"dy":-17,"t":32199},{"dx":39,"dy":-13,"t":32230},{"dx":54,"dy":6,"t":32265},{"dx":57,"dy":32,"t":32295},{"dx":60,"dy":49,"t":32332},{"dx":66,"dy":64,"t":32362},{"dx":186,"dy":121,"t":32397},{"dx":227,"dy":146,"t":32429},{"dx":201,"dy":57,"t":32464},{"dx":153,"dy":34,"t":32495},{"dx":116,"dy":-86,"t":32535},{"dx":97,"dy":-120,"t":32599},{"dx":134,"dy":-106,"t":32633},{"dx":145,"dy":-94,"t":32663},{"dx":232,"dy":-12,"t":32698},{"dx":283,"dy":31,"t":32728},{"dx":311,"dy":79,"t":32766},{"dx":335,"dy":101,"t":32795},{"dx":249,"dy":37,"t":32830},{"dx":236,"dy":32,"t":32863},{"dx":185,"dy":50,"t":32898},{"dx":156,"dy":53,"t":32930},{"dx":140,"dy":34,"t":32967},{"dx":100,"dy":5,"t":33003},{"dx":166,"dy":24,"t":33040},{"dx":217,"dy":58,"t":33068},{"dx":234,"dy":54,"t":33104},{"dx":256,"dy":62,"t":33135},{"dx":406,"dy":66,"t":33172},{"dx":491,"dy":56,"t":33202},{"dx":459,"dy":78,"t":33238},{"dx":385,"dy":107,"t":33269},{"dx":263,"dy":106,"t":33307},{"dx":169,"dy":76,"t":33329}],[{"dx":-172,"dy":-35,"t":34339},{"dx":-181,"dy":-35,"t":34370},{"dx":-227,"dy":-83,"t":34408},{"dx":-237,"dy":-121,"t":34439},{"dx":-226,"dy":-57,"t":34481},{"dx":-193,"dy":-45,"t":34521},{"dx":-156,"dy":-71,"t":34559},{"dx":-174,"dy":-76,"t":34594},{"dx":-182,"dy":-91,"t":34631},{"dx":-177,"dy":-90,"t":34661},{"dx":-192,"dy":-84,"t":34696},{"dx":-191,"dy":-91,"t":34726},{"dx":-204,"dy":-67,"t":34762},{"dx":-214,"dy":-74,"t":34794},{"dx":-232,"dy":7,"t":34831},{"dx":-224,"dy":46,"t":34863},{"dx":-193,"dy":71,"t":34898},{"dx":-181,"dy":76,"t":34931},{"dx":-148,"dy":49,"t":34966},{"dx":-133,"dy":35,"t":34996},{"dx":-108,"dy":-5,"t":35033},{"dx":-98,"dy":-9,"t":35062},{"dx":-97,"dy":-21,"t":35097},{"dx":-79,"dy":-32,"t":35126},{"dx":-84,"dy":-11,"t":35162},{"dx":-95,"dy":7,"t":35192},{"dx":-69,"dy":-3,"t":35230},{"dx":-80,"dy":-18,"t":35260},{"dx":-139,"dy":-6,"t":35296},{"dx":-173,"dy":6,"t":35332},{"dx":-152,"dy":-23,"t":35373},{"dx":-145,"dy":-22,"t":35408},{"dx":-173,"dy":-12,"t":35445},{"dx":-204,"dy":12,"t":35476},{"dx":-281,"dy":38,"t":35513},{"dx":-308,"dy":53,"t":35543},{"dx":-280,"dy":67,"t":35579},{"dx":-262,"dy":63,"t":35609},{"dx":-237,"dy":26,"t":35646},{"dx":-238,"dy":19,"t":35674},{"dx":-209,"dy":-19,"t":35711},{"dx":-201,"dy":-43,"t":35741},{"dx":-198,"dy":-99,"t":35777},{"dx":-189,"dy":-113,"t":35807},{"dx":-213,"dy":-56,"t":35846},{"dx":-210,"dy":-7,"t":35875},{"dx":-221,"dy":-20,"t":35911},{"dx":-229,"dy":-57,"t":35942},{"dx":-281,"dy":-22,"t":35979},{"dx":-304,"dy":-6,"t":36009},{"dx":-232,"dy":1,"t":36047},{"dx":-202,"dy":10,"t":36077},{"dx":-165,"dy":-8,"t":36113},{"dx":-155,"dy":-29,"t":36143},{"dx":-122,"dy":-43,"t":36180},{"dx":-100,"dy":-36,"t":36210},{"dx":-89,"dy":-42,"t":36247},{"dx":-82,"dy":-37,"t":36278},{"dx":-100,"dy":-96,"t":36318},{"dx":-103,"dy":-141,"t":36331}],[{"dx":105,"dy":116,"t":37332},{"dx":79,"dy":108,"t":37389},{"dx":43,"dy":120,"t":37419},{"dx":-4,"dy":106,"t":37455},{"dx":-25,"dy":104,"t":37486},{"dx":-14,"dy":54,"t":37522},{"dx":-11,"dy":31,"t":37552},{"dx":101,"dy":14,"t":37588},{"dx":152,"dy":-7,"t":37619},{"dx":141,"dy":46,"t":37657},{"dx":123,"dy":76,"t":37687},{"dx":114,"dy":123,"t":37722},{"dx":120,"dy":141,"t":37758},{"dx":111,"dy":109,"t":37796},{"dx":102,"dy":127,"t":37826},{"dx":109,"dy":105,"t":37861},{"dx":110,"dy":97,"t":37899},{"dx":54,"dy":135,"t":37940},{"dx":40,"dy":149,"t":37974},{"dx":-14,"dy":119,"t":38009},{"dx":-9,"dy":107,"t":38038},{"dx":-22,"dy":87,"t":38074},{"dx":-29,"dy":76,"t":38104},{"dx":-14,"dy":67,"t":38145},{"dx":-20,"dy":54,"t":38184},{"dx":-23,"dy":56,"t":38239},{"dx":-15,"dy":55,"t":38265},{"dx":-7,"dy":79,"t":38303},{"dx":5,"dy":74,"t":38333},{"dx":22,"dy":121,"t":38373},{"dx":34,"dy":148,"t":38404},{"dx":-21,"dy":137,"t":38440},{"dx":-27,"dy":137,"t":38470},{"dx":-3,"dy":93,"t":38506},{"dx":0,"dy":78,"t":38537},{"dx":32,"dy":106,"t":38574},{"dx":35,"dy":116,"t":38604},{"dx":23,"dy":144,"t":38641},{"dx":19,"dy":172,"t":38671},{"dx":-5,"dy":204,"t":38708},{"dx":-9,"dy":202,"t":38738},{"dx":1,"dy":174,"t":38774},{"dx":22,"dy":205,"t":38805},{"dx":72,"dy":260,"t":38841},{"dx":105,"dy":306,"t":38870},{"dx":102,"dy":380,"t":38908},{"dx":117,"dy":428,"t":38937},{"dx":106,"dy":473,"t":38975},{"dx":91,"dy":482,"t":39004},{"dx":127,"dy":512,"t":39040},{"dx":126,"dy":527,"t":39071},{"dx":147,"dy":516,"t":39110},{"dx":159,"dy":509,"t":39139},{"dx":100,"dy":461,"t":39176},{"dx":62,"dy":451,"t":39207},{"dx":66,"dy":400,"t":39242},{"dx":93,"dy":404,"t":39271},{"dx":103,"dy":379,"t":39314}]],"percent_in_roi":[83.33333333333334,50.847457627118644,77.04918032786885,96.66666666666667,86.66666666666667,85,20,0,0,57.377049180327866,33.33333333333333,26.666666666666668,50],"average_offset":[{"x":-85.46666666666667,"y":-15.6,"r":98.34565818585172},{"x":153.83050847457628,"y":33.28813559322034,"r":85.94939319259467},{"x":-10.049180327868852,"y":-85.01639344262296,"r":71.04595187351315},{"x":40.13333333333333,"y":-33.81666666666667,"r":65.34034008488811},{"x":46.53333333333333,"y":15.983333333333333,"r":114.79963202657629},{"x":55.06666666666667,"y":16.783333333333335,"r":100.13760494408264},{"x":140.11666666666667,"y":243.2,"r":159.17437055971607},{"x":-194.38333333333333,"y":236.53333333333333,"r":116.14318665748225},{"x":-178.46666666666667,"y":146.13333333333333,"r":90.05805090648954},{"x":-132.11475409836066,"y":20.049180327868854,"r":68.51982491863119},{"x":193.21666666666667,"y":30.383333333333333,"r":147.6560166084351},{"x":-179.06666666666666,"y":-24.5,"r":104.18663013513758},{"x":51.741379310344826,"y":190.56896551724137,"r":177.6321783915804}],"samples_per_sec":"29.24","clicks":25,"pattern":"spread","trial_type":"webgazer-validate","trial_index":19,"time_elapsed":271013,"internal_node_id":"0.0-10.0-3.1","validation_points":[[75,75],[25,75],[62.5,62.5],[50,50],[37.5,37.5],[37.5,62.5],[25,25],[85,15],[75,25],[62.5,37.5],[15,85],[85,85],[15,15]],"user_agent":"Mozilla/5.0 (Windows NT 10.0; Win64; x64) AppleWebKit/537.36 (KHTML, like Gecko) Chrome/89.0.4389.82 Safari/537.36","screen_width_px":1280,"screen_height_px":720},{"rt":1672.5949999963632,"stimulus":"\n      <p>Round complete.</p>\n      <p>You can move a little bit, but please try to return you head to the same general location before continuing.</p>\n    ","response":0,"trial_type":"html-button-response","trial_index":20,"time_elapsed":272688,"internal_node_id":"0.0-10.0-4.1","user_agent":"Mozilla/5.0 (Windows NT 10.0; Win64; x64) AppleWebKit/537.36 (KHTML, like Gecko) Chrome/89.0.4389.82 Safari/537.36","screen_width_px":1280,"screen_height_px":720},{"trial_type":"webgazer-init-camera","trial_index":21,"time_elapsed":275235,"internal_node_id":"0.0-10.0-5.1","user_agent":"Mozilla/5.0 (Windows NT 10.0; Win64; x64) AppleWebKit/537.36 (KHTML, like Gecko) Chrome/89.0.4389.82 Safari/537.36","screen_width_px":1280,"screen_height_px":720},{"rt":1119.715000008,"stimulus":"\n      <p>Calibration phase next.</p>\n      <p>Click on the dots.</p>\n    ","response":0,"trial_type":"html-button-response","trial_index":22,"time_elapsed":276356,"internal_node_id":"0.0-10.0-0.2","user_agent":"Mozilla/5.0 (Windows NT 10.0; Win64; x64) AppleWebKit/537.36 (KHTML, like Gecko) Chrome/89.0.4389.82 Safari/537.36","screen_width_px":1280,"screen_height_px":720},{"trial_type":"webgazer-calibrate","trial_index":23,"time_elapsed":293790,"internal_node_id":"0.0-10.0-1.2","user_agent":"Mozilla/5.0 (Windows NT 10.0; Win64; x64) AppleWebKit/537.36 (KHTML, like Gecko) Chrome/89.0.4389.82 Safari/537.36","screen_width_px":1280,"screen_height_px":720},{"rt":881.9249999942258,"stimulus":"\n      <p>Validation phase next.</p>\n      <p>Look at the dots.</p>\n    ","response":0,"trial_type":"html-button-response","trial_index":24,"time_elapsed":294673,"internal_node_id":"0.0-10.0-2.2","user_agent":"Mozilla/5.0 (Windows NT 10.0; Win64; x64) AppleWebKit/537.36 (KHTML, like Gecko) Chrome/89.0.4389.82 Safari/537.36","screen_width_px":1280,"screen_height_px":720},{"raw_gaze":[[{"dx":-43,"dy":-88,"t":1040},{"dx":-9,"dy":-69,"t":1105},{"dx":-3,"dy":-52,"t":1136},{"dx":-15,"dy":-74,"t":1173},{"dx":-16,"dy":-85,"t":1205},{"dx":-36,"dy":-107,"t":1242},{"dx":-41,"dy":-100,"t":1272},{"dx":-8,"dy":-61,"t":1309},{"dx":16,"dy":-49,"t":1337},{"dx":-9,"dy":-103,"t":1373},{"dx":-35,"dy":-125,"t":1404},{"dx":-43,"dy":-115,"t":1440},{"dx":-59,"dy":-117,"t":1476},{"dx":-63,"dy":-116,"t":1514},{"dx":-62,"dy":-112,"t":1545},{"dx":-42,"dy":-99,"t":1581},{"dx":-28,"dy":-88,"t":1610},{"dx":-21,"dy":-83,"t":1646},{"dx":-23,"dy":-90,"t":1677},{"dx":-20,"dy":-73,"t":1713},{"dx":-19,"dy":-59,"t":1745},{"dx":-36,"dy":-48,"t":1785},{"dx":-51,"dy":-50,"t":1816},{"dx":-53,"dy":-42,"t":1853},{"dx":-45,"dy":-32,"t":1883},{"dx":-37,"dy":-16,"t":1920},{"dx":-26,"dy":-13,"t":1951},{"dx":-18,"dy":-17,"t":1986},{"dx":-22,"dy":-9,"t":2014},{"dx":-53,"dy":-29,"t":2053},{"dx":-57,"dy":-38,"t":2083},{"dx":-16,"dy":-89,"t":2120},{"dx":4,"dy":-109,"t":2148},{"dx":12,"dy":-118,"t":2184},{"dx":11,"dy":-92,"t":2214},{"dx":7,"dy":-78,"t":2252},{"dx":3,"dy":-60,"t":2280},{"dx":1,"dy":-35,"t":2318},{"dx":-1,"dy":-18,"t":2348},{"dx":-19,"dy":16,"t":2384},{"dx":-33,"dy":18,"t":2416},{"dx":-26,"dy":5,"t":2454},{"dx":-36,"dy":2,"t":2484},{"dx":-47,"dy":-34,"t":2523},{"dx":-53,"dy":-46,"t":2557},{"dx":-96,"dy":-65,"t":2593},{"dx":-133,"dy":-78,"t":2623},{"dx":-110,"dy":-97,"t":2660},{"dx":-85,"dy":-104,"t":2690},{"dx":-66,"dy":-112,"t":2727},{"dx":-62,"dy":-132,"t":2761},{"dx":-33,"dy":-106,"t":2820},{"dx":-34,"dy":-81,"t":2848},{"dx":-11,"dy":-65,"t":2885},{"dx":-15,"dy":-44,"t":2915},{"dx":3,"dy":-12,"t":2953},{"dx":15,"dy":-2,"t":2984},{"dx":3,"dy":-16,"t":3020},{"dx":-7,"dy":-26,"t":3054},{"dx":23,"dy":-41,"t":3080}],[{"dx":15,"dy":85,"t":4101},{"dx":6,"dy":62,"t":4131},{"dx":-10,"dy":62,"t":4168},{"dx":-14,"dy":71,"t":4197},{"dx":-23,"dy":84,"t":4233},{"dx":-26,"dy":93,"t":4264},{"dx":2,"dy":95,"t":4302},{"dx":25,"dy":92,"t":4332},{"dx":59,"dy":100,"t":4369},{"dx":51,"dy":96,"t":4400},{"dx":32,"dy":101,"t":4435},{"dx":23,"dy":97,"t":4464},{"dx":35,"dy":87,"t":4502},{"dx":53,"dy":80,"t":4533},{"dx":77,"dy":114,"t":4570},{"dx":72,"dy":133,"t":4602},{"dx":58,"dy":173,"t":4637},{"dx":40,"dy":182,"t":4669},{"dx":29,"dy":139,"t":4705},{"dx":17,"dy":123,"t":4735},{"dx":22,"dy":109,"t":4771},{"dx":26,"dy":97,"t":4801},{"dx":59,"dy":133,"t":4838},{"dx":76,"dy":150,"t":4868},{"dx":66,"dy":102,"t":4905},{"dx":53,"dy":69,"t":4936},{"dx":30,"dy":56,"t":4971},{"dx":28,"dy":55,"t":5001},{"dx":42,"dy":45,"t":5036},{"dx":32,"dy":50,"t":5067},{"dx":20,"dy":53,"t":5104},{"dx":18,"dy":50,"t":5136},{"dx":80,"dy":46,"t":5173},{"dx":130,"dy":50,"t":5203},{"dx":156,"dy":63,"t":5239},{"dx":156,"dy":63,"t":5269},{"dx":148,"dy":119,"t":5305},{"dx":142,"dy":138,"t":5337},{"dx":110,"dy":104,"t":5383},{"dx":93,"dy":101,"t":5413},{"dx":65,"dy":80,"t":5449},{"dx":62,"dy":68,"t":5483},{"dx":48,"dy":84,"t":5520},{"dx":49,"dy":97,"t":5551},{"dx":50,"dy":120,"t":5588},{"dx":49,"dy":130,"t":5617},{"dx":66,"dy":111,"t":5653},{"dx":84,"dy":101,"t":5683},{"dx":90,"dy":81,"t":5720},{"dx":83,"dy":97,"t":5749},{"dx":79,"dy":104,"t":5785},{"dx":80,"dy":107,"t":5813},{"dx":128,"dy":158,"t":5849},{"dx":146,"dy":185,"t":5879},{"dx":125,"dy":199,"t":5917},{"dx":111,"dy":215,"t":5948},{"dx":89,"dy":165,"t":5984},{"dx":74,"dy":137,"t":6016},{"dx":91,"dy":123,"t":6052},{"dx":110,"dy":128,"t":6084},{"dx":77,"dy":148,"t":6109}],[{"dx":75,"dy":-70,"t":7111},{"dx":41,"dy":-78,"t":7143},{"dx":73,"dy":-56,"t":7180},{"dx":74,"dy":-43,"t":7208},{"dx":101,"dy":-25,"t":7242},{"dx":105,"dy":-14,"t":7273},{"dx":143,"dy":16,"t":7308},{"dx":166,"dy":35,"t":7346},{"dx":203,"dy":73,"t":7384},{"dx":222,"dy":81,"t":7414},{"dx":290,"dy":75,"t":7452},{"dx":282,"dy":78,"t":7485},{"dx":257,"dy":46,"t":7522},{"dx":261,"dy":11,"t":7549},{"dx":255,"dy":22,"t":7585},{"dx":257,"dy":20,"t":7613},{"dx":266,"dy":-4,"t":7649},{"dx":274,"dy":-23,"t":7676},{"dx":250,"dy":-41,"t":7715},{"dx":220,"dy":-45,"t":7748},{"dx":224,"dy":-21,"t":7787},{"dx":211,"dy":-16,"t":7821},{"dx":252,"dy":18,"t":7857},{"dx":272,"dy":35,"t":7895},{"dx":222,"dy":49,"t":7933},{"dx":211,"dy":58,"t":7963},{"dx":200,"dy":50,"t":8004},{"dx":200,"dy":38,"t":8040},{"dx":193,"dy":31,"t":8077},{"dx":179,"dy":31,"t":8106},{"dx":133,"dy":20,"t":8143},{"dx":95,"dy":-1,"t":8173},{"dx":67,"dy":-7,"t":8212},{"dx":62,"dy":-14,"t":8242},{"dx":95,"dy":-40,"t":8278},{"dx":110,"dy":-59,"t":8307},{"dx":117,"dy":-80,"t":8343},{"dx":116,"dy":-90,"t":8373},{"dx":113,"dy":-91,"t":8411},{"dx":115,"dy":-92,"t":8442},{"dx":158,"dy":-61,"t":8478},{"dx":169,"dy":-55,"t":8545},{"dx":158,"dy":-58,"t":8581},{"dx":187,"dy":-72,"t":8612},{"dx":157,"dy":-60,"t":8650},{"dx":144,"dy":-46,"t":8680},{"dx":156,"dy":12,"t":8716},{"dx":172,"dy":30,"t":8747},{"dx":196,"dy":44,"t":8783},{"dx":197,"dy":51,"t":8819},{"dx":174,"dy":25,"t":8857},{"dx":179,"dy":11,"t":8884},{"dx":196,"dy":-2,"t":8923},{"dx":206,"dy":-2,"t":8957},{"dx":269,"dy":-28,"t":8992},{"dx":289,"dy":-56,"t":9022},{"dx":385,"dy":-111,"t":9060},{"dx":443,"dy":-133,"t":9093},{"dx":481,"dy":-211,"t":9117}],[{"dx":-91,"dy":-64,"t":10131},{"dx":-105,"dy":-60,"t":10162},{"dx":-102,"dy":-41,"t":10199},{"dx":-96,"dy":-33,"t":10229},{"dx":-66,"dy":-3,"t":10266},{"dx":-45,"dy":17,"t":10296},{"dx":-68,"dy":-39,"t":10332},{"dx":-77,"dy":-61,"t":10361},{"dx":-58,"dy":-77,"t":10398},{"dx":-56,"dy":-75,"t":10428},{"dx":-59,"dy":-50,"t":10465},{"dx":-76,"dy":-57,"t":10496},{"dx":-91,"dy":-78,"t":10533},{"dx":-105,"dy":-80,"t":10563},{"dx":-91,"dy":-84,"t":10600},{"dx":-82,"dy":-71,"t":10630},{"dx":-99,"dy":-72,"t":10667},{"dx":-112,"dy":-61,"t":10699},{"dx":-121,"dy":-60,"t":10736},{"dx":-111,"dy":-68,"t":10763},{"dx":-117,"dy":-94,"t":10800},{"dx":-117,"dy":-117,"t":10831},{"dx":-115,"dy":-75,"t":10868},{"dx":-105,"dy":-75,"t":10898},{"dx":-108,"dy":-87,"t":10936},{"dx":-112,"dy":-103,"t":10965},{"dx":-127,"dy":-87,"t":11003},{"dx":-134,"dy":-74,"t":11033},{"dx":-113,"dy":-74,"t":11070},{"dx":-110,"dy":-91,"t":11100},{"dx":-83,"dy":-23,"t":11137},{"dx":-72,"dy":8,"t":11166},{"dx":-48,"dy":5,"t":11201},{"dx":-31,"dy":1,"t":11231},{"dx":-9,"dy":-7,"t":11270},{"dx":-3,"dy":-11,"t":11300},{"dx":-22,"dy":-22,"t":11335},{"dx":-32,"dy":-18,"t":11363},{"dx":-43,"dy":-27,"t":11399},{"dx":-52,"dy":-44,"t":11428},{"dx":-104,"dy":-75,"t":11466},{"dx":-133,"dy":-86,"t":11496},{"dx":-158,"dy":-84,"t":11532},{"dx":-152,"dy":-84,"t":11562},{"dx":-108,"dy":-67,"t":11599},{"dx":-78,"dy":-54,"t":11627},{"dx":-104,"dy":-70,"t":11664},{"dx":-96,"dy":-67,"t":11700},{"dx":-127,"dy":-91,"t":11739},{"dx":-133,"dy":-99,"t":11769},{"dx":-139,"dy":-108,"t":11806},{"dx":-139,"dy":-109,"t":11836},{"dx":-124,"dy":-80,"t":11872},{"dx":-115,"dy":-56,"t":11903},{"dx":-113,"dy":-72,"t":11942},{"dx":-103,"dy":-81,"t":11972},{"dx":-112,"dy":-91,"t":12007},{"dx":-119,"dy":-94,"t":12037},{"dx":-72,"dy":-87,"t":12073},{"dx":-39,"dy":-88,"t":12105},{"dx":-65,"dy":-79,"t":12129}],[{"dx":-36,"dy":2,"t":13149},{"dx":-6,"dy":-13,"t":13178},{"dx":46,"dy":-38,"t":13213},{"dx":69,"dy":-42,"t":13244},{"dx":106,"dy":-33,"t":13281},{"dx":121,"dy":-23,"t":13311},{"dx":95,"dy":-12,"t":13347},{"dx":82,"dy":-12,"t":13378},{"dx":12,"dy":-39,"t":13414},{"dx":-3,"dy":-33,"t":13444},{"dx":-8,"dy":-19,"t":13481},{"dx":-8,"dy":-18,"t":13512},{"dx":-12,"dy":10,"t":13547},{"dx":-21,"dy":27,"t":13577},{"dx":-2,"dy":26,"t":13613},{"dx":4,"dy":37,"t":13644},{"dx":42,"dy":55,"t":13683},{"dx":73,"dy":53,"t":13713},{"dx":79,"dy":-1,"t":13750},{"dx":72,"dy":-30,"t":13778},{"dx":79,"dy":-62,"t":13814},{"dx":93,"dy":-79,"t":13843},{"dx":65,"dy":-73,"t":13880},{"dx":44,"dy":-61,"t":13911},{"dx":18,"dy":-64,"t":13948},{"dx":15,"dy":-59,"t":13979},{"dx":-8,"dy":-55,"t":14013},{"dx":-31,"dy":-60,"t":14045},{"dx":-1,"dy":-41,"t":14083},{"dx":9,"dy":-31,"t":14120},{"dx":-17,"dy":54,"t":14175},{"dx":-16,"dy":88,"t":14202},{"dx":19,"dy":59,"t":14239},{"dx":42,"dy":35,"t":14270},{"dx":43,"dy":-15,"t":14308},{"dx":48,"dy":-32,"t":14337},{"dx":70,"dy":-10,"t":14373},{"dx":83,"dy":2,"t":14402},{"dx":76,"dy":-4,"t":14438},{"dx":49,"dy":13,"t":14469},{"dx":29,"dy":52,"t":14506},{"dx":31,"dy":72,"t":14538},{"dx":32,"dy":42,"t":14573},{"dx":28,"dy":20,"t":14604},{"dx":22,"dy":-14,"t":14641},{"dx":10,"dy":-16,"t":14670},{"dx":-9,"dy":1,"t":14708},{"dx":-28,"dy":9,"t":14737},{"dx":-15,"dy":68,"t":14774},{"dx":-11,"dy":94,"t":14806},{"dx":2,"dy":68,"t":14844},{"dx":20,"dy":64,"t":14873},{"dx":50,"dy":56,"t":14910},{"dx":64,"dy":32,"t":14939},{"dx":90,"dy":5,"t":14975},{"dx":96,"dy":-2,"t":15005},{"dx":100,"dy":-3,"t":15040},{"dx":88,"dy":8,"t":15068},{"dx":47,"dy":-3,"t":15103},{"dx":37,"dy":-2,"t":15140},{"dx":39,"dy":-2,"t":15164}],[{"dx":27,"dy":69,"t":16165},{"dx":24,"dy":55,"t":16195},{"dx":47,"dy":61,"t":16231},{"dx":68,"dy":72,"t":16261},{"dx":64,"dy":87,"t":16297},{"dx":44,"dy":102,"t":16328},{"dx":25,"dy":129,"t":16365},{"dx":29,"dy":137,"t":16394},{"dx":65,"dy":87,"t":16430},{"dx":77,"dy":57,"t":16460},{"dx":52,"dy":50,"t":16496},{"dx":25,"dy":54,"t":16527},{"dx":11,"dy":81,"t":16564},{"dx":44,"dy":76,"t":16594},{"dx":65,"dy":42,"t":16630},{"dx":73,"dy":24,"t":16660},{"dx":58,"dy":14,"t":16700},{"dx":54,"dy":7,"t":16731},{"dx":40,"dy":8,"t":16769},{"dx":42,"dy":-3,"t":16799},{"dx":4,"dy":56,"t":16836},{"dx":5,"dy":90,"t":16867},{"dx":21,"dy":78,"t":16904},{"dx":18,"dy":78,"t":16935},{"dx":49,"dy":90,"t":16974},{"dx":73,"dy":107,"t":17006},{"dx":105,"dy":120,"t":17042},{"dx":145,"dy":135,"t":17072},{"dx":104,"dy":65,"t":17108},{"dx":86,"dy":40,"t":17139},{"dx":56,"dy":68,"t":17180},{"dx":42,"dy":71,"t":17210},{"dx":69,"dy":121,"t":17246},{"dx":94,"dy":142,"t":17277},{"dx":85,"dy":118,"t":17313},{"dx":74,"dy":95,"t":17342},{"dx":74,"dy":49,"t":17382},{"dx":94,"dy":38,"t":17411},{"dx":54,"dy":41,"t":17447},{"dx":28,"dy":43,"t":17477},{"dx":-7,"dy":66,"t":17518},{"dx":-28,"dy":79,"t":17547},{"dx":4,"dy":109,"t":17583},{"dx":15,"dy":109,"t":17613},{"dx":45,"dy":98,"t":17649},{"dx":51,"dy":92,"t":17675},{"dx":85,"dy":94,"t":17712},{"dx":96,"dy":91,"t":17743},{"dx":126,"dy":68,"t":17783},{"dx":144,"dy":53,"t":17815},{"dx":137,"dy":36,"t":17850},{"dx":132,"dy":12,"t":17879},{"dx":92,"dy":58,"t":17916},{"dx":66,"dy":73,"t":17952},{"dx":77,"dy":58,"t":17994},{"dx":96,"dy":46,"t":18034},{"dx":114,"dy":49,"t":18071},{"dx":115,"dy":42,"t":18098},{"dx":101,"dy":46,"t":18138},{"dx":87,"dy":58,"t":18178},{"dx":51,"dy":80,"t":18204}],[{"dx":-66,"dy":28,"t":19214},{"dx":-97,"dy":48,"t":19246},{"dx":-121,"dy":90,"t":19282},{"dx":-122,"dy":114,"t":19313},{"dx":-104,"dy":95,"t":19349},{"dx":-101,"dy":88,"t":19379},{"dx":-127,"dy":76,"t":19417},{"dx":-139,"dy":57,"t":19446},{"dx":-119,"dy":41,"t":19481},{"dx":-104,"dy":35,"t":19513},{"dx":-91,"dy":48,"t":19549},{"dx":-81,"dy":46,"t":19580},{"dx":-105,"dy":55,"t":19617},{"dx":-124,"dy":71,"t":19649},{"dx":-156,"dy":80,"t":19685},{"dx":-162,"dy":84,"t":19715},{"dx":-172,"dy":82,"t":19751},{"dx":-174,"dy":80,"t":19783},{"dx":-135,"dy":22,"t":19821},{"dx":-124,"dy":-5,"t":19886},{"dx":-77,"dy":-13,"t":19921},{"dx":-67,"dy":-12,"t":19962},{"dx":-85,"dy":-24,"t":20005},{"dx":-69,"dy":-15,"t":20034},{"dx":-134,"dy":-13,"t":20071},{"dx":-142,"dy":-8,"t":20101},{"dx":-116,"dy":-9,"t":20137},{"dx":-115,"dy":-10,"t":20167},{"dx":-57,"dy":-5,"t":20203},{"dx":-59,"dy":-14,"t":20234},{"dx":-74,"dy":-24,"t":20269},{"dx":-91,"dy":-9,"t":20300},{"dx":-95,"dy":-47,"t":20336},{"dx":-91,"dy":-66,"t":20368},{"dx":-83,"dy":-45,"t":20403},{"dx":-83,"dy":-38,"t":20435},{"dx":-92,"dy":-23,"t":20471},{"dx":-109,"dy":-14,"t":20502},{"dx":-93,"dy":14,"t":20539},{"dx":-81,"dy":26,"t":20569},{"dx":-61,"dy":38,"t":20604},{"dx":-45,"dy":44,"t":20633},{"dx":-65,"dy":43,"t":20669},{"dx":-95,"dy":38,"t":20699},{"dx":-120,"dy":68,"t":20737},{"dx":-135,"dy":69,"t":20767},{"dx":-155,"dy":74,"t":20803},{"dx":-171,"dy":83,"t":20832},{"dx":-109,"dy":59,"t":20869},{"dx":-82,"dy":55,"t":20899},{"dx":-82,"dy":36,"t":20935},{"dx":-88,"dy":36,"t":20965},{"dx":-101,"dy":39,"t":21002},{"dx":-101,"dy":40,"t":21032},{"dx":-101,"dy":-8,"t":21069},{"dx":-96,"dy":-37,"t":21098},{"dx":-91,"dy":-49,"t":21133},{"dx":-86,"dy":-50,"t":21163},{"dx":-81,"dy":-52,"t":21204},{"dx":-81,"dy":-52,"t":21217}],[{"dx":9,"dy":25,"t":22205},{"dx":21,"dy":25,"t":22274},{"dx":19,"dy":26,"t":22305},{"dx":43,"dy":19,"t":22342},{"dx":45,"dy":19,"t":22379},{"dx":30,"dy":-30,"t":22415},{"dx":42,"dy":-29,"t":22445},{"dx":41,"dy":-34,"t":22482},{"dx":32,"dy":-39,"t":22513},{"dx":28,"dy":-1,"t":22551},{"dx":40,"dy":26,"t":22582},{"dx":1,"dy":26,"t":22619},{"dx":-36,"dy":33,"t":22648},{"dx":-20,"dy":22,"t":22683},{"dx":6,"dy":11,"t":22713},{"dx":19,"dy":-8,"t":22750},{"dx":20,"dy":-12,"t":22782},{"dx":36,"dy":17,"t":22821},{"dx":49,"dy":44,"t":22851},{"dx":39,"dy":16,"t":22886},{"dx":27,"dy":6,"t":22916},{"dx":9,"dy":-26,"t":22953},{"dx":-6,"dy":-52,"t":22984},{"dx":-36,"dy":-56,"t":23020},{"dx":-46,"dy":-64,"t":23051},{"dx":-34,"dy":-40,"t":23088},{"dx":-33,"dy":-30,"t":23118},{"dx":-37,"dy":-18,"t":23156},{"dx":-32,"dy":2,"t":23186},{"dx":15,"dy":39,"t":23224},{"dx":38,"dy":56,"t":23254},{"dx":17,"dy":46,"t":23290},{"dx":24,"dy":72,"t":23319},{"dx":10,"dy":65,"t":23356},{"dx":-4,"dy":57,"t":23386},{"dx":-3,"dy":31,"t":23421},{"dx":-20,"dy":3,"t":23451},{"dx":-20,"dy":-24,"t":23486},{"dx":-12,"dy":-40,"t":23519},{"dx":-7,"dy":-81,"t":23555},{"dx":-7,"dy":-103,"t":23586},{"dx":-5,"dy":-91,"t":23623},{"dx":-7,"dy":-83,"t":23652},{"dx":0,"dy":-27,"t":23687},{"dx":19,"dy":9,"t":23715},{"dx":51,"dy":-7,"t":23753},{"dx":74,"dy":-11,"t":23784},{"dx":63,"dy":-21,"t":23820},{"dx":47,"dy":-17,"t":23850},{"dx":67,"dy":2,"t":23887},{"dx":63,"dy":-8,"t":23919},{"dx":19,"dy":-32,"t":23961},{"dx":1,"dy":-43,"t":23994},{"dx":-40,"dy":-45,"t":24030},{"dx":-62,"dy":-44,"t":24061},{"dx":-45,"dy":-21,"t":24097},{"dx":-34,"dy":-6,"t":24127},{"dx":-44,"dy":-26,"t":24164},{"dx":-36,"dy":-33,"t":24196},{"dx":-34,"dy":-16,"t":24221}],[{"dx":-16,"dy":-18,"t":25208},{"dx":-11,"dy":-21,"t":25267},{"dx":-1,"dy":-17,"t":25296},{"dx":-19,"dy":4,"t":25334},{"dx":-9,"dy":-12,"t":25363},{"dx":-20,"dy":-29,"t":25400},{"dx":-12,"dy":-38,"t":25428},{"dx":-14,"dy":-21,"t":25466},{"dx":-21,"dy":-8,"t":25501},{"dx":-18,"dy":-16,"t":25574},{"dx":-2,"dy":-24,"t":25601},{"dx":6,"dy":-65,"t":25639},{"dx":-5,"dy":-78,"t":25668},{"dx":-60,"dy":-80,"t":25704},{"dx":-79,"dy":-73,"t":25735},{"dx":-92,"dy":-43,"t":25772},{"dx":-86,"dy":-23,"t":25803},{"dx":-89,"dy":-41,"t":25840},{"dx":-109,"dy":-52,"t":25873},{"dx":-86,"dy":-54,"t":25907},{"dx":-80,"dy":-65,"t":25937},{"dx":-72,"dy":-42,"t":25974},{"dx":-68,"dy":-26,"t":26004},{"dx":-74,"dy":-41,"t":26041},{"dx":-71,"dy":-37,"t":26071},{"dx":-59,"dy":-29,"t":26109},{"dx":-65,"dy":-18,"t":26145},{"dx":-55,"dy":3,"t":26180},{"dx":-61,"dy":13,"t":26210},{"dx":-87,"dy":-14,"t":26252},{"dx":-75,"dy":-22,"t":26284},{"dx":-76,"dy":-106,"t":26320},{"dx":-70,"dy":-146,"t":26349},{"dx":-66,"dy":-94,"t":26386},{"dx":-75,"dy":-59,"t":26415},{"dx":-58,"dy":-13,"t":26452},{"dx":-66,"dy":-7,"t":26482},{"dx":-70,"dy":12,"t":26518},{"dx":-68,"dy":13,"t":26549},{"dx":-68,"dy":18,"t":26589},{"dx":-69,"dy":23,"t":26629},{"dx":-76,"dy":43,"t":26670},{"dx":-78,"dy":54,"t":26710},{"dx":-101,"dy":41,"t":26749},{"dx":-107,"dy":27,"t":26783},{"dx":-86,"dy":-19,"t":26818},{"dx":-64,"dy":-46,"t":26854},{"dx":-26,"dy":-61,"t":26893},{"dx":-9,"dy":-53,"t":26922},{"dx":6,"dy":-39,"t":26959},{"dx":10,"dy":-17,"t":26989},{"dx":-50,"dy":-25,"t":27025},{"dx":-89,"dy":-41,"t":27054},{"dx":-129,"dy":-18,"t":27091},{"dx":-140,"dy":-6,"t":27122},{"dx":-130,"dy":23,"t":27159},{"dx":-118,"dy":34,"t":27188},{"dx":-65,"dy":9,"t":27229},{"dx":-27,"dy":5,"t":27243}],[{"dx":-134,"dy":-17,"t":28239},{"dx":-119,"dy":1,"t":28302},{"dx":-109,"dy":-16,"t":28331},{"dx":-108,"dy":-25,"t":28368},{"dx":-112,"dy":-16,"t":28403},{"dx":-121,"dy":-4,"t":28443},{"dx":-117,"dy":7,"t":28479},{"dx":-125,"dy":-2,"t":28517},{"dx":-138,"dy":-19,"t":28548},{"dx":-130,"dy":-34,"t":28584},{"dx":-132,"dy":-33,"t":28613},{"dx":-125,"dy":-7,"t":28650},{"dx":-119,"dy":13,"t":28681},{"dx":-112,"dy":-17,"t":28716},{"dx":-113,"dy":-28,"t":28748},{"dx":-116,"dy":-65,"t":28784},{"dx":-114,"dy":-94,"t":28816},{"dx":-119,"dy":-108,"t":28852},{"dx":-125,"dy":-99,"t":28882},{"dx":-139,"dy":-69,"t":28919},{"dx":-146,"dy":-61,"t":28948},{"dx":-134,"dy":-32,"t":28983},{"dx":-113,"dy":-34,"t":29013},{"dx":-122,"dy":-14,"t":29048},{"dx":-120,"dy":-19,"t":29083},{"dx":-107,"dy":-22,"t":29122},{"dx":-81,"dy":-24,"t":29152},{"dx":-93,"dy":-18,"t":29190},{"dx":-93,"dy":-20,"t":29219},{"dx":-91,"dy":-28,"t":29255},{"dx":-89,"dy":-32,"t":29286},{"dx":-93,"dy":6,"t":29322},{"dx":-85,"dy":19,"t":29351},{"dx":-84,"dy":33,"t":29387},{"dx":-84,"dy":33,"t":29418},{"dx":-83,"dy":35,"t":29453},{"dx":-77,"dy":35,"t":29483},{"dx":-72,"dy":44,"t":29519},{"dx":-72,"dy":39,"t":29550},{"dx":-93,"dy":28,"t":29586},{"dx":-116,"dy":27,"t":29617},{"dx":-113,"dy":10,"t":29653},{"dx":-95,"dy":12,"t":29683},{"dx":-80,"dy":3,"t":29719},{"dx":-81,"dy":-5,"t":29748},{"dx":-88,"dy":-26,"t":29784},{"dx":-105,"dy":-3,"t":29814},{"dx":-113,"dy":-10,"t":29850},{"dx":-136,"dy":-14,"t":29880},{"dx":-183,"dy":-3,"t":29917},{"dx":-206,"dy":11,"t":29948},{"dx":-173,"dy":-9,"t":29986},{"dx":-162,"dy":-6,"t":30017},{"dx":-121,"dy":-43,"t":30053},{"dx":-97,"dy":-48,"t":30082},{"dx":-77,"dy":-61,"t":30120},{"dx":-69,"dy":-61,"t":30148},{"dx":-71,"dy":-36,"t":30183},{"dx":-68,"dy":-63,"t":30213},{"dx":-40,"dy":-53,"t":30252},{"dx":-29,"dy":-34,"t":30266}],[{"dx":-65,"dy":161,"t":31296},{"dx":-64,"dy":184,"t":31328},{"dx":-87,"dy":194,"t":31372},{"dx":-107,"dy":189,"t":31406},{"dx":-111,"dy":186,"t":31449},{"dx":-67,"dy":177,"t":31483},{"dx":-87,"dy":164,"t":31526},{"dx":-89,"dy":156,"t":31561},{"dx":-85,"dy":148,"t":31605},{"dx":-80,"dy":146,"t":31639},{"dx":-104,"dy":152,"t":31682},{"dx":-91,"dy":145,"t":31717},{"dx":-117,"dy":157,"t":31759},{"dx":-130,"dy":167,"t":31794},{"dx":-130,"dy":170,"t":31838},{"dx":-139,"dy":167,"t":31874},{"dx":-162,"dy":162,"t":31917},{"dx":-178,"dy":162,"t":31952},{"dx":-145,"dy":183,"t":31996},{"dx":-156,"dy":176,"t":32031},{"dx":-146,"dy":173,"t":32075},{"dx":-153,"dy":175,"t":32111},{"dx":-110,"dy":161,"t":32154},{"dx":-86,"dy":160,"t":32188},{"dx":-81,"dy":163,"t":32232},{"dx":-94,"dy":166,"t":32268},{"dx":-113,"dy":185,"t":32310},{"dx":-120,"dy":199,"t":32344},{"dx":-150,"dy":204,"t":32391},{"dx":-165,"dy":199,"t":32429},{"dx":-149,"dy":228,"t":32473},{"dx":-143,"dy":240,"t":32507},{"dx":-142,"dy":238,"t":32551},{"dx":-158,"dy":254,"t":32586},{"dx":-152,"dy":242,"t":32630},{"dx":-141,"dy":246,"t":32665},{"dx":-146,"dy":216,"t":32708},{"dx":-166,"dy":200,"t":32741},{"dx":-119,"dy":200,"t":32786},{"dx":-95,"dy":208,"t":32821},{"dx":-101,"dy":195,"t":32865},{"dx":-117,"dy":192,"t":32899},{"dx":-150,"dy":183,"t":32942},{"dx":-143,"dy":171,"t":32976},{"dx":-122,"dy":181,"t":33020},{"dx":-111,"dy":183,"t":33055},{"dx":-99,"dy":188,"t":33099},{"dx":-95,"dy":184,"t":33135},{"dx":-51,"dy":244,"t":33178},{"dx":-40,"dy":276,"t":33212},{"dx":-71,"dy":282,"t":33255},{"dx":-70,"dy":279,"t":33298},{"dx":-138,"dy":266,"t":33326}],[{"dx":-160,"dy":5,"t":34307},{"dx":-154,"dy":4,"t":34365},{"dx":-168,"dy":23,"t":34395},{"dx":-136,"dy":-11,"t":34432},{"dx":-114,"dy":-33,"t":34462},{"dx":-120,"dy":-35,"t":34501},{"dx":-99,"dy":-47,"t":34535},{"dx":-130,"dy":-37,"t":34573},{"dx":-149,"dy":-32,"t":34603},{"dx":-134,"dy":-31,"t":34640},{"dx":-127,"dy":-33,"t":34670},{"dx":-132,"dy":-22,"t":34707},{"dx":-127,"dy":-19,"t":34744},{"dx":-88,"dy":-17,"t":34781},{"dx":-78,"dy":-20,"t":34815},{"dx":-100,"dy":-17,"t":34852},{"dx":-90,"dy":-33,"t":34879},{"dx":-100,"dy":-29,"t":34916},{"dx":-111,"dy":-21,"t":34946},{"dx":-160,"dy":-5,"t":34987},{"dx":-178,"dy":0,"t":35020},{"dx":-178,"dy":-10,"t":35057},{"dx":-172,"dy":-12,"t":35087},{"dx":-170,"dy":-22,"t":35123},{"dx":-164,"dy":-20,"t":35153},{"dx":-144,"dy":-16,"t":35189},{"dx":-140,"dy":-9,"t":35217},{"dx":-117,"dy":-2,"t":35254},{"dx":-125,"dy":5,"t":35283},{"dx":-159,"dy":12,"t":35326},{"dx":-166,"dy":10,"t":35367},{"dx":-160,"dy":-8,"t":35405},{"dx":-159,"dy":-10,"t":35435},{"dx":-175,"dy":-30,"t":35471},{"dx":-165,"dy":-45,"t":35501},{"dx":-135,"dy":-55,"t":35537},{"dx":-150,"dy":-48,"t":35565},{"dx":-152,"dy":-39,"t":35601},{"dx":-163,"dy":-35,"t":35631},{"dx":-169,"dy":-7,"t":35669},{"dx":-174,"dy":1,"t":35700},{"dx":-181,"dy":5,"t":35738},{"dx":-197,"dy":18,"t":35765},{"dx":-210,"dy":34,"t":35801},{"dx":-208,"dy":37,"t":35830},{"dx":-186,"dy":3,"t":35866},{"dx":-189,"dy":-9,"t":35903},{"dx":-166,"dy":-27,"t":35943},{"dx":-151,"dy":-37,"t":35973},{"dx":-191,"dy":-6,"t":36008},{"dx":-220,"dy":11,"t":36037},{"dx":-248,"dy":23,"t":36072},{"dx":-249,"dy":21,"t":36103},{"dx":-215,"dy":11,"t":36142},{"dx":-204,"dy":17,"t":36173},{"dx":-171,"dy":4,"t":36208},{"dx":-166,"dy":-4,"t":36239},{"dx":-164,"dy":-6,"t":36274},{"dx":-174,"dy":-8,"t":36306},{"dx":-193,"dy":0,"t":36332}],[{"dx":-79,"dy":37,"t":37348},{"dx":-87,"dy":39,"t":37377},{"dx":-88,"dy":50,"t":37414},{"dx":-83,"dy":59,"t":37445},{"dx":-102,"dy":80,"t":37482},{"dx":-101,"dy":85,"t":37512},{"dx":-96,"dy":85,"t":37548},{"dx":-93,"dy":85,"t":37579},{"dx":-89,"dy":87,"t":37614},{"dx":-74,"dy":96,"t":37645},{"dx":125,"dy":143,"t":37685},{"dx":270,"dy":161,"t":37717},{"dx":388,"dy":211,"t":37758},{"dx":385,"dy":217,"t":37791},{"dx":283,"dy":190,"t":37832},{"dx":209,"dy":167,"t":37862},{"dx":114,"dy":152,"t":37900},{"dx":78,"dy":150,"t":37931},{"dx":-8,"dy":142,"t":37968},{"dx":-41,"dy":152,"t":37998},{"dx":-80,"dy":146,"t":38037},{"dx":-103,"dy":132,"t":38067},{"dx":-87,"dy":72,"t":38104},{"dx":-63,"dy":47,"t":38136},{"dx":-88,"dy":34,"t":38172},{"dx":-104,"dy":37,"t":38203},{"dx":-98,"dy":30,"t":38240},{"dx":-83,"dy":21,"t":38270},{"dx":-73,"dy":13,"t":38307},{"dx":-76,"dy":6,"t":38336},{"dx":-78,"dy":0,"t":38372},{"dx":-78,"dy":0,"t":38403},{"dx":-48,"dy":23,"t":38439},{"dx":-39,"dy":41,"t":38470},{"dx":-25,"dy":55,"t":38526},{"dx":-34,"dy":51,"t":38555},{"dx":-81,"dy":46,"t":38592},{"dx":-106,"dy":47,"t":38622},{"dx":-107,"dy":56,"t":38659},{"dx":-93,"dy":56,"t":38689},{"dx":-98,"dy":27,"t":38726},{"dx":-79,"dy":11,"t":38754},{"dx":-76,"dy":45,"t":38790},{"dx":-73,"dy":48,"t":38819},{"dx":-83,"dy":55,"t":38856},{"dx":-92,"dy":64,"t":38886},{"dx":-85,"dy":33,"t":38923},{"dx":-82,"dy":2,"t":38954},{"dx":-42,"dy":-6,"t":38991},{"dx":-25,"dy":-4,"t":39020},{"dx":-31,"dy":10,"t":39057},{"dx":-29,"dy":21,"t":39088},{"dx":-45,"dy":35,"t":39127},{"dx":-56,"dy":38,"t":39160},{"dx":-67,"dy":56,"t":39197},{"dx":-105,"dy":68,"t":39226},{"dx":-122,"dy":85,"t":39267},{"dx":-132,"dy":91,"t":39300}]],"percent_in_roi":[98.33333333333333,70.49180327868852,28.8135593220339,78.68852459016394,100,93.44262295081968,83.33333333333334,100,98.30508474576271,86.88524590163934,0,33.33333333333333,79.3103448275862],"average_offset":[{"x":-29.633333333333333,"y":-62.96666666666667,"r":65.59076353689431},{"x":61.704918032786885,"y":104.26229508196721,"r":47.71079339629167},{"x":191.83050847457628,"y":-14.322033898305085,"r":73.6588348986907},{"x":-91.75409836065573,"y":-63.18032786885246,"r":34.40684075404992},{"x":34.540983606557376,"y":0.8360655737704918,"r":53.93689266372029},{"x":62.50819672131148,"y":70.01639344262296,"r":41.79394624211236},{"x":-103.05,"y":22.666666666666668,"r":74.42913540545999},{"x":6.733333333333333,"y":-8.683333333333334,"r":66.6560130773185},{"x":-58.898305084745765,"y":-24.322033898305083,"r":43.36165001190848},{"x":-107.90163934426229,"y":-17.639344262295083,"r":29.788468610081907},{"x":-115.67924528301887,"y":192.96226415094338,"r":41.41837353244735},{"x":-157.91666666666666,"y":-11.05,"r":46.72040488563993},{"x":-33.706896551724135,"y":68.62068965517241,"r":103.15592793395557}],"samples_per_sec":"29.01","clicks":15,"pattern":"cond","trial_type":"webgazer-validate","trial_index":25,"time_elapsed":334989,"internal_node_id":"0.0-10.0-3.2","validation_points":[[50,50],[25,25],[15,85],[62.5,62.5],[37.5,37.5],[15,15],[75,25],[25,75],[62.5,37.5],[75,75],[85,15],[85,85],[37.5,62.5]],"user_agent":"Mozilla/5.0 (Windows NT 10.0; Win64; x64) AppleWebKit/537.36 (KHTML, like Gecko) Chrome/89.0.4389.82 Safari/537.36","screen_width_px":1280,"screen_height_px":720},{"rt":1585.3050000005169,"stimulus":"\n      <p>Round complete.</p>\n      <p>You can move a little bit, but please try to return you head to the same general location before continuing.</p>\n    ","response":0,"trial_type":"html-button-response","trial_index":26,"time_elapsed":336576,"internal_node_id":"0.0-10.0-4.2","user_agent":"Mozilla/5.0 (Windows NT 10.0; Win64; x64) AppleWebKit/537.36 (KHTML, like Gecko) Chrome/89.0.4389.82 Safari/537.36","screen_width_px":1280,"screen_height_px":720},{"trial_type":"webgazer-init-camera","trial_index":27,"time_elapsed":339201,"internal_node_id":"0.0-10.0-5.2","user_agent":"Mozilla/5.0 (Windows NT 10.0; Win64; x64) AppleWebKit/537.36 (KHTML, like Gecko) Chrome/89.0.4389.82 Safari/537.36","screen_width_px":1280,"screen_height_px":720},{"rt":857.2899999999208,"stimulus":"\n      <p>Calibration phase next.</p>\n      <p>Click on the dots.</p>\n    ","response":0,"trial_type":"html-button-response","trial_index":28,"time_elapsed":340059,"internal_node_id":"0.0-10.0-0.3","user_agent":"Mozilla/5.0 (Windows NT 10.0; Win64; x64) AppleWebKit/537.36 (KHTML, like Gecko) Chrome/89.0.4389.82 Safari/537.36","screen_width_px":1280,"screen_height_px":720},{"trial_type":"webgazer-calibrate","trial_index":29,"time_elapsed":371209,"internal_node_id":"0.0-10.0-1.3","user_agent":"Mozilla/5.0 (Windows NT 10.0; Win64; x64) AppleWebKit/537.36 (KHTML, like Gecko) Chrome/89.0.4389.82 Safari/537.36","screen_width_px":1280,"screen_height_px":720},{"rt":959.8799999948824,"stimulus":"\n      <p>Validation phase next.</p>\n      <p>Look at the dots.</p>\n    ","response":0,"trial_type":"html-button-response","trial_index":30,"time_elapsed":372170,"internal_node_id":"0.0-10.0-2.3","user_agent":"Mozilla/5.0 (Windows NT 10.0; Win64; x64) AppleWebKit/537.36 (KHTML, like Gecko) Chrome/89.0.4389.82 Safari/537.36","screen_width_px":1280,"screen_height_px":720},{"raw_gaze":[[{"dx":68,"dy":164,"t":1054},{"dx":113,"dy":183,"t":1120},{"dx":122,"dy":212,"t":1160},{"dx":101,"dy":189,"t":1198},{"dx":77,"dy":172,"t":1229},{"dx":30,"dy":122,"t":1267},{"dx":-4,"dy":101,"t":1297},{"dx":-27,"dy":82,"t":1334},{"dx":-42,"dy":75,"t":1368},{"dx":2,"dy":102,"t":1408},{"dx":19,"dy":115,"t":1438},{"dx":92,"dy":139,"t":1476},{"dx":119,"dy":123,"t":1512},{"dx":152,"dy":135,"t":1550},{"dx":155,"dy":152,"t":1579},{"dx":195,"dy":179,"t":1615},{"dx":244,"dy":198,"t":1646},{"dx":240,"dy":203,"t":1687},{"dx":254,"dy":209,"t":1721},{"dx":204,"dy":217,"t":1758},{"dx":220,"dy":230,"t":1787},{"dx":182,"dy":137,"t":1823},{"dx":159,"dy":103,"t":1850},{"dx":59,"dy":54,"t":1886},{"dx":33,"dy":17,"t":1914},{"dx":22,"dy":-21,"t":1949},{"dx":33,"dy":-25,"t":1979},{"dx":70,"dy":0,"t":2014},{"dx":75,"dy":-6,"t":2044},{"dx":63,"dy":-26,"t":2082},{"dx":85,"dy":-51,"t":2112},{"dx":59,"dy":-55,"t":2151},{"dx":32,"dy":-47,"t":2191},{"dx":20,"dy":15,"t":2228},{"dx":23,"dy":50,"t":2258},{"dx":12,"dy":110,"t":2296},{"dx":7,"dy":145,"t":2326},{"dx":-27,"dy":118,"t":2363},{"dx":-45,"dy":99,"t":2392},{"dx":-56,"dy":55,"t":2432},{"dx":-60,"dy":49,"t":2466},{"dx":-1,"dy":93,"t":2504},{"dx":54,"dy":131,"t":2535},{"dx":85,"dy":93,"t":2571},{"dx":98,"dy":80,"t":2601},{"dx":63,"dy":25,"t":2637},{"dx":59,"dy":36,"t":2667},{"dx":36,"dy":80,"t":2704},{"dx":37,"dy":100,"t":2733},{"dx":10,"dy":124,"t":2769},{"dx":-19,"dy":126,"t":2798},{"dx":-17,"dy":128,"t":2835},{"dx":-21,"dy":135,"t":2865},{"dx":9,"dy":116,"t":2903},{"dx":19,"dy":113,"t":2933},{"dx":41,"dy":105,"t":2970},{"dx":36,"dy":89,"t":3000},{"dx":30,"dy":77,"t":3036},{"dx":7,"dy":43,"t":3070},{"dx":-7,"dy":49,"t":3096}],[{"dx":48,"dy":-43,"t":4100},{"dx":22,"dy":-30,"t":4138},{"dx":66,"dy":-7,"t":4168},{"dx":5,"dy":-9,"t":4205},{"dx":-6,"dy":-13,"t":4235},{"dx":-19,"dy":-6,"t":4273},{"dx":-6,"dy":2,"t":4303},{"dx":-58,"dy":-25,"t":4342},{"dx":-84,"dy":-41,"t":4379},{"dx":-84,"dy":-52,"t":4417},{"dx":-81,"dy":-62,"t":4448},{"dx":-64,"dy":-118,"t":4486},{"dx":-52,"dy":-158,"t":4516},{"dx":-11,"dy":-129,"t":4553},{"dx":-5,"dy":-109,"t":4584},{"dx":61,"dy":-54,"t":4621},{"dx":75,"dy":-38,"t":4652},{"dx":92,"dy":-8,"t":4687},{"dx":80,"dy":-10,"t":4719},{"dx":57,"dy":-14,"t":4756},{"dx":28,"dy":-38,"t":4789},{"dx":40,"dy":-27,"t":4825},{"dx":22,"dy":-38,"t":4854},{"dx":47,"dy":-24,"t":4890},{"dx":63,"dy":-20,"t":4928},{"dx":69,"dy":-57,"t":4966},{"dx":76,"dy":-73,"t":4996},{"dx":75,"dy":-64,"t":5032},{"dx":74,"dy":-64,"t":5062},{"dx":69,"dy":-62,"t":5098},{"dx":67,"dy":-47,"t":5130},{"dx":31,"dy":-30,"t":5170},{"dx":15,"dy":-31,"t":5203},{"dx":21,"dy":-46,"t":5240},{"dx":44,"dy":-45,"t":5270},{"dx":45,"dy":-50,"t":5307},{"dx":58,"dy":-49,"t":5337},{"dx":19,"dy":-27,"t":5375},{"dx":-18,"dy":-29,"t":5411},{"dx":-4,"dy":-21,"t":5448},{"dx":27,"dy":-10,"t":5478},{"dx":9,"dy":2,"t":5515},{"dx":-29,"dy":3,"t":5545},{"dx":-64,"dy":-23,"t":5584},{"dx":-66,"dy":-34,"t":5616},{"dx":-56,"dy":-42,"t":5651},{"dx":-52,"dy":-41,"t":5682},{"dx":-31,"dy":-68,"t":5718},{"dx":-11,"dy":-90,"t":5749},{"dx":24,"dy":-90,"t":5789},{"dx":54,"dy":-66,"t":5820},{"dx":83,"dy":-63,"t":5856},{"dx":103,"dy":-51,"t":5883},{"dx":72,"dy":-51,"t":5919},{"dx":46,"dy":-54,"t":5950},{"dx":14,"dy":-25,"t":5987},{"dx":-3,"dy":-2,"t":6015},{"dx":-5,"dy":-35,"t":6051},{"dx":20,"dy":-47,"t":6084},{"dx":26,"dy":-47,"t":6108}],[{"dx":-51,"dy":98,"t":7120},{"dx":-31,"dy":62,"t":7154},{"dx":-18,"dy":-1,"t":7189},{"dx":-5,"dy":-51,"t":7219},{"dx":-76,"dy":22,"t":7256},{"dx":-116,"dy":40,"t":7286},{"dx":-127,"dy":66,"t":7323},{"dx":-144,"dy":72,"t":7353},{"dx":-79,"dy":131,"t":7388},{"dx":-38,"dy":147,"t":7419},{"dx":-42,"dy":150,"t":7457},{"dx":-30,"dy":153,"t":7489},{"dx":4,"dy":145,"t":7524},{"dx":29,"dy":168,"t":7555},{"dx":34,"dy":182,"t":7590},{"dx":48,"dy":178,"t":7620},{"dx":12,"dy":161,"t":7658},{"dx":-30,"dy":148,"t":7689},{"dx":-53,"dy":193,"t":7726},{"dx":-71,"dy":243,"t":7759},{"dx":-68,"dy":220,"t":7796},{"dx":-72,"dy":216,"t":7826},{"dx":-106,"dy":186,"t":7863},{"dx":-130,"dy":205,"t":7892},{"dx":-34,"dy":146,"t":7928},{"dx":20,"dy":118,"t":7959},{"dx":55,"dy":114,"t":7995},{"dx":56,"dy":104,"t":8024},{"dx":45,"dy":114,"t":8061},{"dx":48,"dy":93,"t":8090},{"dx":-7,"dy":107,"t":8126},{"dx":-15,"dy":136,"t":8157},{"dx":-56,"dy":192,"t":8192},{"dx":-59,"dy":194,"t":8222},{"dx":-65,"dy":187,"t":8259},{"dx":-58,"dy":179,"t":8289},{"dx":-39,"dy":154,"t":8331},{"dx":-35,"dy":146,"t":8363},{"dx":1,"dy":149,"t":8399},{"dx":14,"dy":154,"t":8429},{"dx":-23,"dy":119,"t":8467},{"dx":-53,"dy":114,"t":8503},{"dx":-52,"dy":109,"t":8542},{"dx":-46,"dy":116,"t":8572},{"dx":-29,"dy":96,"t":8610},{"dx":-10,"dy":92,"t":8641},{"dx":55,"dy":87,"t":8679},{"dx":48,"dy":107,"t":8710},{"dx":25,"dy":67,"t":8746},{"dx":-1,"dy":77,"t":8782},{"dx":-19,"dy":89,"t":8850},{"dx":-24,"dy":86,"t":8878},{"dx":-14,"dy":83,"t":8916},{"dx":2,"dy":77,"t":8946},{"dx":2,"dy":92,"t":8982},{"dx":10,"dy":101,"t":9019},{"dx":-30,"dy":102,"t":9056},{"dx":-28,"dy":106,"t":9089},{"dx":-38,"dy":119,"t":9115}],[{"dx":64,"dy":5,"t":10136},{"dx":85,"dy":14,"t":10166},{"dx":88,"dy":-23,"t":10202},{"dx":67,"dy":-46,"t":10232},{"dx":104,"dy":-44,"t":10268},{"dx":128,"dy":-37,"t":10298},{"dx":134,"dy":-24,"t":10336},{"dx":164,"dy":-20,"t":10365},{"dx":207,"dy":-12,"t":10400},{"dx":206,"dy":-19,"t":10429},{"dx":149,"dy":-34,"t":10466},{"dx":102,"dy":-38,"t":10495},{"dx":125,"dy":7,"t":10532},{"dx":125,"dy":2,"t":10568},{"dx":129,"dy":7,"t":10605},{"dx":129,"dy":15,"t":10634},{"dx":164,"dy":0,"t":10669},{"dx":200,"dy":-14,"t":10699},{"dx":157,"dy":-23,"t":10735},{"dx":167,"dy":-4,"t":10764},{"dx":139,"dy":-16,"t":10801},{"dx":103,"dy":-25,"t":10830},{"dx":78,"dy":-33,"t":10865},{"dx":90,"dy":-26,"t":10896},{"dx":147,"dy":19,"t":10935},{"dx":186,"dy":34,"t":10963},{"dx":226,"dy":52,"t":10999},{"dx":237,"dy":63,"t":11025},{"dx":220,"dy":25,"t":11059},{"dx":219,"dy":14,"t":11087},{"dx":219,"dy":25,"t":11122},{"dx":227,"dy":29,"t":11150},{"dx":203,"dy":3,"t":11184},{"dx":193,"dy":-24,"t":11214},{"dx":177,"dy":-52,"t":11254},{"dx":179,"dy":-58,"t":11294},{"dx":191,"dy":-48,"t":11334},{"dx":196,"dy":-11,"t":11363},{"dx":121,"dy":-21,"t":11401},{"dx":111,"dy":-23,"t":11430},{"dx":72,"dy":-36,"t":11465},{"dx":26,"dy":-45,"t":11496},{"dx":-27,"dy":-48,"t":11532},{"dx":-41,"dy":-40,"t":11563},{"dx":36,"dy":-24,"t":11599},{"dx":76,"dy":-12,"t":11635},{"dx":148,"dy":-44,"t":11672},{"dx":130,"dy":-58,"t":11702},{"dx":130,"dy":-31,"t":11741},{"dx":149,"dy":-3,"t":11773},{"dx":194,"dy":28,"t":11810},{"dx":218,"dy":32,"t":11840},{"dx":216,"dy":33,"t":11875},{"dx":198,"dy":31,"t":11905},{"dx":198,"dy":41,"t":11942},{"dx":182,"dy":38,"t":11972},{"dx":123,"dy":-5,"t":12007},{"dx":100,"dy":-13,"t":12043},{"dx":61,"dy":-19,"t":12079},{"dx":45,"dy":-18,"t":12113},{"dx":17,"dy":-19,"t":12139}],[{"dx":96,"dy":39,"t":13156},{"dx":95,"dy":41,"t":13186},{"dx":58,"dy":24,"t":13221},{"dx":60,"dy":14,"t":13256},{"dx":57,"dy":1,"t":13292},{"dx":41,"dy":-14,"t":13321},{"dx":-15,"dy":-18,"t":13357},{"dx":-37,"dy":-14,"t":13388},{"dx":-11,"dy":-48,"t":13426},{"dx":-14,"dy":-72,"t":13455},{"dx":-7,"dy":-45,"t":13493},{"dx":-11,"dy":-40,"t":13523},{"dx":-32,"dy":-17,"t":13561},{"dx":-42,"dy":-10,"t":13591},{"dx":-18,"dy":-20,"t":13627},{"dx":-17,"dy":-32,"t":13657},{"dx":16,"dy":-4,"t":13693},{"dx":26,"dy":11,"t":13723},{"dx":74,"dy":39,"t":13759},{"dx":73,"dy":52,"t":13796},{"dx":128,"dy":80,"t":13836},{"dx":149,"dy":93,"t":13867},{"dx":108,"dy":80,"t":13903},{"dx":98,"dy":61,"t":13939},{"dx":78,"dy":27,"t":13975},{"dx":68,"dy":12,"t":14011},{"dx":51,"dy":30,"t":14050},{"dx":46,"dy":37,"t":14079},{"dx":47,"dy":31,"t":14118},{"dx":53,"dy":20,"t":14147},{"dx":39,"dy":-24,"t":14183},{"dx":29,"dy":-36,"t":14214},{"dx":14,"dy":-47,"t":14250},{"dx":8,"dy":-48,"t":14287},{"dx":-20,"dy":-49,"t":14325},{"dx":-29,"dy":-37,"t":14355},{"dx":15,"dy":-17,"t":14390},{"dx":33,"dy":12,"t":14427},{"dx":43,"dy":-13,"t":14484},{"dx":1,"dy":-15,"t":14511},{"dx":-51,"dy":-55,"t":14549},{"dx":-52,"dy":-81,"t":14580},{"dx":-23,"dy":-79,"t":14619},{"dx":12,"dy":-62,"t":14648},{"dx":43,"dy":14,"t":14686},{"dx":46,"dy":59,"t":14717},{"dx":-1,"dy":44,"t":14755},{"dx":-3,"dy":33,"t":14785},{"dx":16,"dy":33,"t":14821},{"dx":24,"dy":27,"t":14850},{"dx":116,"dy":-1,"t":14887},{"dx":179,"dy":-16,"t":14917},{"dx":199,"dy":-94,"t":14953},{"dx":207,"dy":-131,"t":14982},{"dx":195,"dy":-121,"t":15018},{"dx":167,"dy":-92,"t":15047},{"dx":197,"dy":-122,"t":15084},{"dx":200,"dy":-153,"t":15115},{"dx":205,"dy":-132,"t":15139}],[{"dx":53,"dy":13,"t":16151},{"dx":36,"dy":45,"t":16184},{"dx":35,"dy":10,"t":16220},{"dx":42,"dy":-24,"t":16250},{"dx":53,"dy":-33,"t":16287},{"dx":72,"dy":-44,"t":16319},{"dx":68,"dy":-15,"t":16354},{"dx":69,"dy":-17,"t":16384},{"dx":63,"dy":31,"t":16420},{"dx":54,"dy":49,"t":16456},{"dx":57,"dy":82,"t":16498},{"dx":40,"dy":95,"t":16528},{"dx":9,"dy":86,"t":16567},{"dx":6,"dy":72,"t":16598},{"dx":-30,"dy":63,"t":16635},{"dx":-50,"dy":63,"t":16664},{"dx":-39,"dy":50,"t":16700},{"dx":-20,"dy":30,"t":16730},{"dx":5,"dy":25,"t":16766},{"dx":-13,"dy":10,"t":16797},{"dx":-5,"dy":24,"t":16834},{"dx":-17,"dy":14,"t":16864},{"dx":-24,"dy":22,"t":16901},{"dx":-19,"dy":15,"t":16931},{"dx":-16,"dy":7,"t":16966},{"dx":-22,"dy":-6,"t":16995},{"dx":-19,"dy":13,"t":17031},{"dx":-33,"dy":29,"t":17061},{"dx":-19,"dy":57,"t":17098},{"dx":-17,"dy":54,"t":17128},{"dx":-18,"dy":4,"t":17163},{"dx":-11,"dy":-18,"t":17200},{"dx":11,"dy":-22,"t":17238},{"dx":21,"dy":-19,"t":17268},{"dx":36,"dy":18,"t":17306},{"dx":49,"dy":14,"t":17335},{"dx":90,"dy":1,"t":17370},{"dx":107,"dy":-23,"t":17400},{"dx":70,"dy":-7,"t":17437},{"dx":52,"dy":-1,"t":17466},{"dx":48,"dy":54,"t":17502},{"dx":70,"dy":93,"t":17532},{"dx":72,"dy":86,"t":17569},{"dx":86,"dy":81,"t":17599},{"dx":63,"dy":105,"t":17636},{"dx":59,"dy":106,"t":17667},{"dx":75,"dy":136,"t":17705},{"dx":71,"dy":154,"t":17736},{"dx":82,"dy":121,"t":17772},{"dx":94,"dy":91,"t":17800},{"dx":107,"dy":44,"t":17835},{"dx":109,"dy":26,"t":17865},{"dx":49,"dy":28,"t":17902},{"dx":9,"dy":70,"t":17932},{"dx":-30,"dy":103,"t":17968},{"dx":-39,"dy":99,"t":17997},{"dx":-15,"dy":99,"t":18034},{"dx":-7,"dy":75,"t":18064},{"dx":17,"dy":78,"t":18102},{"dx":19,"dy":78,"t":18135},{"dx":26,"dy":111,"t":18159}],[{"dx":-136,"dy":8,"t":19165},{"dx":-164,"dy":0,"t":19194},{"dx":-147,"dy":-9,"t":19229},{"dx":-141,"dy":-22,"t":19258},{"dx":-97,"dy":-38,"t":19294},{"dx":-66,"dy":-40,"t":19325},{"dx":-67,"dy":-48,"t":19360},{"dx":-77,"dy":-68,"t":19390},{"dx":-72,"dy":-79,"t":19425},{"dx":-70,"dy":-68,"t":19453},{"dx":-67,"dy":-50,"t":19489},{"dx":-63,"dy":-51,"t":19519},{"dx":-96,"dy":-38,"t":19555},{"dx":-108,"dy":-42,"t":19586},{"dx":-129,"dy":-26,"t":19621},{"dx":-135,"dy":-12,"t":19649},{"dx":-120,"dy":-17,"t":19684},{"dx":-118,"dy":-26,"t":19721},{"dx":-120,"dy":-35,"t":19759},{"dx":-123,"dy":-38,"t":19790},{"dx":-124,"dy":-22,"t":19827},{"dx":-126,"dy":-17,"t":19864},{"dx":-147,"dy":13,"t":19903},{"dx":-163,"dy":36,"t":19934},{"dx":-170,"dy":56,"t":19970},{"dx":-164,"dy":55,"t":20001},{"dx":-147,"dy":84,"t":20041},{"dx":-142,"dy":84,"t":20075},{"dx":-112,"dy":57,"t":20151},{"dx":-99,"dy":20,"t":20178},{"dx":-98,"dy":-6,"t":20215},{"dx":-86,"dy":-10,"t":20247},{"dx":-52,"dy":-37,"t":20283},{"dx":-57,"dy":-36,"t":20314},{"dx":-55,"dy":-47,"t":20350},{"dx":-52,"dy":-57,"t":20384},{"dx":-28,"dy":-62,"t":20420},{"dx":-37,"dy":-53,"t":20450},{"dx":-8,"dy":-83,"t":20488},{"dx":35,"dy":-70,"t":20523},{"dx":71,"dy":-66,"t":20563},{"dx":32,"dy":-44,"t":20595},{"dx":64,"dy":-36,"t":20632},{"dx":72,"dy":-36,"t":20662},{"dx":61,"dy":-45,"t":20699},{"dx":89,"dy":-56,"t":20728},{"dx":100,"dy":-104,"t":20766},{"dx":106,"dy":-131,"t":20796},{"dx":59,"dy":-140,"t":20833},{"dx":34,"dy":-130,"t":20863},{"dx":10,"dy":-125,"t":20900},{"dx":-9,"dy":-105,"t":20936},{"dx":-45,"dy":-72,"t":20975},{"dx":-57,"dy":-71,"t":21012},{"dx":-47,"dy":-18,"t":21051},{"dx":-25,"dy":-23,"t":21080},{"dx":-13,"dy":-3,"t":21116},{"dx":-1,"dy":-1,"t":21149},{"dx":8,"dy":1,"t":21175}],[{"dx":-75,"dy":265,"t":22175},{"dx":-150,"dy":269,"t":22212},{"dx":-175,"dy":270,"t":22243},{"dx":-122,"dy":277,"t":22280},{"dx":-90,"dy":285,"t":22311},{"dx":-107,"dy":268,"t":22347},{"dx":-100,"dy":263,"t":22375},{"dx":-100,"dy":278,"t":22412},{"dx":-106,"dy":291,"t":22443},{"dx":-78,"dy":256,"t":22477},{"dx":-69,"dy":242,"t":22507},{"dx":-92,"dy":242,"t":22541},{"dx":-85,"dy":243,"t":22573},{"dx":-9,"dy":199,"t":22610},{"dx":-2,"dy":192,"t":22640},{"dx":8,"dy":165,"t":22679},{"dx":18,"dy":166,"t":22713},{"dx":-33,"dy":193,"t":22749},{"dx":-28,"dy":202,"t":22780},{"dx":-59,"dy":231,"t":22816},{"dx":-70,"dy":229,"t":22846},{"dx":-51,"dy":194,"t":22882},{"dx":-27,"dy":165,"t":22913},{"dx":-60,"dy":141,"t":22948},{"dx":-77,"dy":131,"t":22980},{"dx":-111,"dy":145,"t":23018},{"dx":-129,"dy":142,"t":23047},{"dx":-121,"dy":147,"t":23083},{"dx":-116,"dy":156,"t":23114},{"dx":-138,"dy":194,"t":23149},{"dx":-151,"dy":202,"t":23182},{"dx":-141,"dy":237,"t":23219},{"dx":-155,"dy":253,"t":23248},{"dx":-125,"dy":162,"t":23285},{"dx":-137,"dy":135,"t":23314},{"dx":-195,"dy":106,"t":23355},{"dx":-167,"dy":81,"t":23389},{"dx":-144,"dy":82,"t":23425},{"dx":-123,"dy":65,"t":23456},{"dx":-131,"dy":43,"t":23492},{"dx":-139,"dy":46,"t":23521},{"dx":-115,"dy":23,"t":23557},{"dx":-100,"dy":9,"t":23587},{"dx":-28,"dy":16,"t":23628},{"dx":-10,"dy":23,"t":23661},{"dx":-10,"dy":55,"t":23698},{"dx":-28,"dy":107,"t":23729},{"dx":-63,"dy":120,"t":23764},{"dx":-75,"dy":129,"t":23801},{"dx":-67,"dy":144,"t":23843},{"dx":-72,"dy":155,"t":23877},{"dx":-90,"dy":132,"t":23914},{"dx":-106,"dy":139,"t":23945},{"dx":-84,"dy":81,"t":23980},{"dx":-47,"dy":56,"t":24009},{"dx":-14,"dy":35,"t":24046},{"dx":8,"dy":44,"t":24076},{"dx":44,"dy":27,"t":24110},{"dx":73,"dy":40,"t":24144},{"dx":44,"dy":5,"t":24187},{"dx":58,"dy":-13,"t":24204}],[{"dx":-109,"dy":7,"t":25215},{"dx":-122,"dy":2,"t":25247},{"dx":-160,"dy":34,"t":25283},{"dx":-179,"dy":24,"t":25320},{"dx":-213,"dy":50,"t":25356},{"dx":-244,"dy":55,"t":25387},{"dx":-252,"dy":68,"t":25422},{"dx":-257,"dy":8,"t":25452},{"dx":-221,"dy":44,"t":25488},{"dx":-225,"dy":80,"t":25524},{"dx":-175,"dy":64,"t":25561},{"dx":-154,"dy":51,"t":25591},{"dx":-158,"dy":47,"t":25627},{"dx":-158,"dy":46,"t":25665},{"dx":-171,"dy":15,"t":25721},{"dx":-179,"dy":-7,"t":25747},{"dx":-114,"dy":14,"t":25785},{"dx":-71,"dy":29,"t":25816},{"dx":-57,"dy":7,"t":25853},{"dx":-69,"dy":2,"t":25883},{"dx":-57,"dy":6,"t":25921},{"dx":-59,"dy":5,"t":25951},{"dx":-29,"dy":33,"t":25986},{"dx":-22,"dy":48,"t":26017},{"dx":-35,"dy":46,"t":26054},{"dx":-45,"dy":44,"t":26083},{"dx":-88,"dy":44,"t":26121},{"dx":-117,"dy":47,"t":26152},{"dx":-160,"dy":38,"t":26187},{"dx":-169,"dy":32,"t":26217},{"dx":-142,"dy":33,"t":26252},{"dx":-139,"dy":37,"t":26283},{"dx":-134,"dy":64,"t":26320},{"dx":-129,"dy":70,"t":26351},{"dx":-103,"dy":63,"t":26386},{"dx":-84,"dy":54,"t":26416},{"dx":-129,"dy":58,"t":26451},{"dx":-141,"dy":42,"t":26482},{"dx":-175,"dy":13,"t":26524},{"dx":-162,"dy":11,"t":26557},{"dx":-126,"dy":-9,"t":26593},{"dx":-106,"dy":-26,"t":26624},{"dx":-131,"d