[{"rt":2474.0000000000005,"stimulus":"\n      <p>You can elect whether to include your data in our research dataset.</p>\n    ","response":0,"question":"consent","trial_type":"html-button-response","trial_index":0,"time_elapsed":2480,"internal_node_id":"0.0-0.0","user_agent":"Mozilla/5.0 (Macintosh; Intel Mac OS X 10_15_6) AppleWebKit/605.1.15 (KHTML, like Gecko) Version/13.1.2 Safari/605.1.15","screen_width_px":1440,"screen_height_px":900},{"rt":1165.000000000001,"stimulus":"\n      <p>This experiment uses your camera for eye tracking.</p>\n      <p>No video is saved from this experiment. The only data recorded are predictions about where you are looking.</p>\n      <p>Before we begin, there are a few things to do that can improve the accuracy of the eye tracking.</p>\n    ","response":0,"trial_type":"html-button-response","trial_index":1,"time_elapsed":3652,"internal_node_id":"0.0-1.0","user_agent":"Mozilla/5.0 (Macintosh; Intel Mac OS X 10_15_6) AppleWebKit/605.1.15 (KHTML, like Gecko) Version/13.1.2 Safari/605.1.15","screen_width_px":1440,"screen_height_px":900},{"rt":1695,"stimulus":"\n      <p>If you wear glasses and can complete the task without them, please remove your glasses.</p>\n    ","response":0,"trial_type":"html-button-response","trial_index":2,"time_elapsed":5347,"internal_node_id":"0.0-2.0","user_agent":"Mozilla/5.0 (Macintosh; Intel Mac OS X 10_15_6) AppleWebKit/605.1.15 (KHTML, like Gecko) Version/13.1.2 Safari/605.1.15","screen_width_px":1440,"screen_height_px":900},{"rt":3462.999999999999,"stimulus":"\n      <p>Please close additional browser tabs and apps running in the background.<br>The eye tracker works best when there are fewer things running at the same time.</p>\n    ","response":0,"trial_type":"html-button-response","trial_index":3,"time_elapsed":8812,"internal_node_id":"0.0-3.0","user_agent":"Mozilla/5.0 (Macintosh; Intel Mac OS X 10_15_6) AppleWebKit/605.1.15 (KHTML, like Gecko) Version/13.1.2 Safari/605.1.15","screen_width_px":1440,"screen_height_px":900},{"rt":2319,"stimulus":"\n      <p>Try to avoid bright lights behind you.<br>The eye tracker works best if your face is well lit from the front.<br>If you can, adjust the lighting in your room.</p>\n    ","response":0,"trial_type":"html-button-response","trial_index":4,"time_elapsed":11132,"internal_node_id":"0.0-4.0","user_agent":"Mozilla/5.0 (Macintosh; Intel Mac OS X 10_15_6) AppleWebKit/605.1.15 (KHTML, like Gecko) Version/13.1.2 Safari/605.1.15","screen_width_px":1440,"screen_height_px":900},{"rt":2235.000000000002,"stimulus":"\n      <p>In order to participate you must allow the experiment to use your camera.</p>\n      <p>You will be prompted to do this on the next screen.</p>\n    ","response":0,"trial_type":"html-button-response","trial_index":5,"time_elapsed":13368,"internal_node_id":"0.0-5.0","user_agent":"Mozilla/5.0 (Macintosh; Intel Mac OS X 10_15_6) AppleWebKit/605.1.15 (KHTML, like Gecko) Version/13.1.2 Safari/605.1.15","screen_width_px":1440,"screen_height_px":900},{"trial_type":"webgazer-init-camera","trial_index":6,"time_elapsed":33386,"internal_node_id":"0.0-6.0","user_agent":"Mozilla/5.0 (Macintosh; Intel Mac OS X 10_15_6) AppleWebKit/605.1.15 (KHTML, like Gecko) Version/13.1.2 Safari/605.1.15","screen_width_px":1440,"screen_height_px":900},{"rt":3348,"stimulus":"\n      <p>Now you'll complete a series of calibrations and validations.</p>\n      <p>The calibration will be reset after each round, so it is OK to move a little bit<br>in between the end of a validation and the start of the next calibration.</p>\n      <p>Please keep your head still during each round.</p>\n    ","response":0,"trial_type":"html-button-response","trial_index":7,"time_elapsed":36740,"internal_node_id":"0.0-7.0","user_agent":"Mozilla/5.0 (Macintosh; Intel Mac OS X 10_15_6) AppleWebKit/605.1.15 (KHTML, like Gecko) Version/13.1.2 Safari/605.1.15","screen_width_px":1440,"screen_height_px":900},{"success":true,"trial_type":"fullscreen","trial_index":8,"time_elapsed":39635,"internal_node_id":"0.0-8.0","user_agent":"Mozilla/5.0 (Macintosh; Intel Mac OS X 10_15_6) AppleWebKit/605.1.15 (KHTML, like Gecko) Version/13.1.2 Safari/605.1.15","screen_width_px":1440,"screen_height_px":900},{"rt":1070,"stimulus":"\n      <p>During the calibration phase, please look at each dot and click on it.</p>\n      <p>During the validation phase, just look at each dot while it is on the screen.</p>\n    ","response":0,"trial_type":"html-button-response","trial_index":9,"time_elapsed":40707,"internal_node_id":"0.0-9.0","user_agent":"Mozilla/5.0 (Macintosh; Intel Mac OS X 10_15_6) AppleWebKit/605.1.15 (KHTML, like Gecko) Version/13.1.2 Safari/605.1.15","screen_width_px":1440,"screen_height_px":900},{"rt":1398,"stimulus":"\n      <p>Calibration phase next.</p>\n      <p>Click on the dots.</p>\n    ","response":0,"trial_type":"html-button-response","trial_index":10,"time_elapsed":42105,"internal_node_id":"0.0-10.0-0.0","user_agent":"Mozilla/5.0 (Macintosh; Intel Mac OS X 10_15_6) AppleWebKit/605.1.15 (KHTML, like Gecko) Version/13.1.2 Safari/605.1.15","screen_width_px":1440,"screen_height_px":900},{"trial_type":"webgazer-calibrate","trial_index":11,"time_elapsed":68094,"internal_node_id":"0.0-10.0-1.0","user_agent":"Mozilla/5.0 (Macintosh; Intel Mac OS X 10_15_6) AppleWebKit/605.1.15 (KHTML, like Gecko) Version/13.1.2 Safari/605.1.15","screen_width_px":1440,"screen_height_px":900},{"rt":1514,"stimulus":"\n      <p>Validation phase next.</p>\n      <p>Look at the dots.</p>\n    ","response":0,"trial_type":"html-button-response","trial_index":12,"time_elapsed":69611,"internal_node_id":"0.0-10.0-2.0","user_agent":"Mozilla/5.0 (Macintosh; Intel Mac OS X 10_15_6) AppleWebKit/605.1.15 (KHTML, like Gecko) Version/13.1.2 Safari/605.1.15","screen_width_px":1440,"screen_height_px":900},{"raw_gaze":[[{"dx":-2,"dy":-1,"t":1074},{"dx":-3,"dy":0,"t":1151},{"dx":-4,"dy":0,"t":1225},{"dx":-4,"dy":0,"t":1302},{"dx":-3,"dy":0,"t":1376},{"dx":-3,"dy":0,"t":1454},{"dx":-3,"dy":-1,"t":1532},{"dx":-3,"dy":-1,"t":1606},{"dx":-2,"dy":-1,"t":1687},{"dx":-2,"dy":-1,"t":1762},{"dx":-2,"dy":-1,"t":1834},{"dx":-2,"dy":-1,"t":1911},{"dx":-2,"dy":-1,"t":1990},{"dx":-2,"dy":-1,"t":2064},{"dx":-2,"dy":-1,"t":2142},{"dx":-2,"dy":-1,"t":2218},{"dx":-2,"dy":-1,"t":2295},{"dx":-2,"dy":-1,"t":2366},{"dx":-2,"dy":-1,"t":2440},{"dx":-2,"dy":-1,"t":2523},{"dx":-2,"dy":-1,"t":2597},{"dx":-2,"dy":-1,"t":2671},{"dx":-2,"dy":-1,"t":2749},{"dx":-2,"dy":-1,"t":2828},{"dx":-2,"dy":-1,"t":2901},{"dx":-2,"dy":-1,"t":2980},{"dx":-2,"dy":-1,"t":3059}],[{"dx":502,"dy":314,"t":4088},{"dx":502,"dy":314,"t":4162},{"dx":502,"dy":314,"t":4236},{"dx":502,"dy":314,"t":4315},{"dx":502,"dy":314,"t":4391},{"dx":502,"dy":314,"t":4467},{"dx":502,"dy":314,"t":4538},{"dx":502,"dy":314,"t":4616},{"dx":502,"dy":314,"t":4696},{"dx":502,"dy":314,"t":4771},{"dx":502,"dy":314,"t":4845},{"dx":502,"dy":314,"t":4928},{"dx":502,"dy":314,"t":5001},{"dx":502,"dy":314,"t":5076},{"dx":502,"dy":314,"t":5155},{"dx":502,"dy":314,"t":5229},{"dx":502,"dy":314,"t":5303},{"dx":502,"dy":314,"t":5385},{"dx":502,"dy":314,"t":5463},{"dx":502,"dy":314,"t":5537},{"dx":502,"dy":314,"t":5620},{"dx":502,"dy":314,"t":5696},{"dx":502,"dy":314,"t":5775},{"dx":502,"dy":314,"t":5854},{"dx":502,"dy":314,"t":5931},{"dx":502,"dy":314,"t":6011},{"dx":502,"dy":314,"t":6091}],[{"dx":358,"dy":224,"t":7112},{"dx":358,"dy":224,"t":7190},{"dx":358,"dy":224,"t":7266},{"dx":358,"dy":224,"t":7340},{"dx":358,"dy":224,"t":7423},{"dx":358,"dy":224,"t":7499},{"dx":358,"dy":224,"t":7574},{"dx":358,"dy":224,"t":7653},{"dx":358,"dy":224,"t":7735},{"dx":358,"dy":224,"t":7810},{"dx":358,"dy":224,"t":7889},{"dx":358,"dy":224,"t":7969},{"dx":358,"dy":224,"t":8048},{"dx":358,"dy":224,"t":8127},{"dx":358,"dy":224,"t":8204},{"dx":358,"dy":224,"t":8285},{"dx":358,"dy":224,"t":8362},{"dx":358,"dy":224,"t":8441},{"dx":358,"dy":224,"t":8517},{"dx":358,"dy":224,"t":8594},{"dx":358,"dy":224,"t":8666},{"dx":358,"dy":224,"t":8746},{"dx":358,"dy":224,"t":8822},{"dx":358,"dy":224,"t":8896},{"dx":358,"dy":224,"t":8973},{"dx":358,"dy":224,"t":9048},{"dx":358,"dy":224,"t":9124}],[{"dx":-506,"dy":-316,"t":10131},{"dx":-506,"dy":-316,"t":10205},{"dx":-506,"dy":-316,"t":10276},{"dx":-506,"dy":-316,"t":10353},{"dx":-506,"dy":-316,"t":10430},{"dx":-506,"dy":-316,"t":10501},{"dx":-506,"dy":-316,"t":10583},{"dx":-506,"dy":-316,"t":10661},{"dx":-506,"dy":-316,"t":10733},{"dx":-506,"dy":-316,"t":10813},{"dx":-506,"dy":-316,"t":10892},{"dx":-506,"dy":-316,"t":10963},{"dx":-506,"dy":-316,"t":11038},{"dx":-506,"dy":-316,"t":11122},{"dx":-506,"dy":-316,"t":11195},{"dx":-506,"dy":-316,"t":11271},{"dx":-506,"dy":-316,"t":11350},{"dx":-506,"dy":-316,"t":11428},{"dx":-506,"dy":-316,"t":11501},{"dx":-506,"dy":-316,"t":11580},{"dx":-506,"dy":-316,"t":11659},{"dx":-506,"dy":-316,"t":11731},{"dx":-506,"dy":-316,"t":11808},{"dx":-506,"dy":-316,"t":11885},{"dx":-506,"dy":-316,"t":11959},{"dx":-506,"dy":-316,"t":12033},{"dx":-506,"dy":-316,"t":12111},{"dx":-506,"dy":-316,"t":12191}],[{"dx":-506,"dy":314,"t":13221},{"dx":-506,"dy":314,"t":13295},{"dx":-506,"dy":314,"t":13375},{"dx":-506,"dy":314,"t":13453},{"dx":-506,"dy":314,"t":13528},{"dx":-506,"dy":314,"t":13602},{"dx":-506,"dy":314,"t":13684},{"dx":-506,"dy":314,"t":13760},{"dx":-506,"dy":314,"t":13832},{"dx":-506,"dy":314,"t":13912},{"dx":-506,"dy":314,"t":13991},{"dx":-506,"dy":314,"t":14067},{"dx":-506,"dy":314,"t":14142},{"dx":-506,"dy":314,"t":14222},{"dx":-506,"dy":314,"t":14299},{"dx":-506,"dy":314,"t":14377},{"dx":-506,"dy":314,"t":14457},{"dx":-506,"dy":314,"t":14536},{"dx":-506,"dy":314,"t":14613},{"dx":-506,"dy":314,"t":14691},{"dx":-506,"dy":314,"t":14763},{"dx":-506,"dy":314,"t":14840},{"dx":-506,"dy":314,"t":14919},{"dx":-506,"dy":314,"t":14992},{"dx":-506,"dy":314,"t":15076},{"dx":-506,"dy":314,"t":15152},{"dx":-506,"dy":314,"t":15230}],[{"dx":-182,"dy":111.5,"t":16259},{"dx":-182,"dy":111.5,"t":16335},{"dx":-182,"dy":111.5,"t":16418},{"dx":-182,"dy":111.5,"t":16495},{"dx":-182,"dy":111.5,"t":16567},{"dx":-182,"dy":111.5,"t":16642},{"dx":-182,"dy":111.5,"t":16723},{"dx":-182,"dy":111.5,"t":16793},{"dx":-182,"dy":111.5,"t":16870},{"dx":-182,"dy":111.5,"t":16948},{"dx":-182,"dy":111.5,"t":17028},{"dx":-182,"dy":111.5,"t":17106},{"dx":-182,"dy":111.5,"t":17184},{"dx":-182,"dy":111.5,"t":17258},{"dx":-182,"dy":111.5,"t":17339},{"dx":-182,"dy":111.5,"t":17421},{"dx":-182,"dy":111.5,"t":17495},{"dx":-182,"dy":111.5,"t":17572},{"dx":-182,"dy":111.5,"t":17650},{"dx":-182,"dy":111.5,"t":17724},{"dx":-182,"dy":111.5,"t":17802},{"dx":-182,"dy":111.5,"t":17880},{"dx":-182,"dy":111.5,"t":17958},{"dx":-182,"dy":111.5,"t":18034},{"dx":-182,"dy":111.5,"t":18109},{"dx":-182,"dy":111.5,"t":18188},{"dx":-182,"dy":111.5,"t":18266}],[{"dx":358,"dy":-226,"t":19290},{"dx":358,"dy":-226,"t":19365},{"dx":358,"dy":-226,"t":19442},{"dx":358,"dy":-226,"t":19520},{"dx":358,"dy":-226,"t":19593},{"dx":358,"dy":-226,"t":19668},{"dx":358,"dy":-226,"t":19750},{"dx":358,"dy":-226,"t":19824},{"dx":358,"dy":-226,"t":19897},{"dx":358,"dy":-226,"t":19974},{"dx":358,"dy":-226,"t":20054},{"dx":358,"dy":-226,"t":20124},{"dx":358,"dy":-226,"t":20201},{"dx":358,"dy":-226,"t":20285},{"dx":358,"dy":-226,"t":20358},{"dx":358,"dy":-226,"t":20433},{"dx":358,"dy":-226,"t":20521},{"dx":358,"dy":-226,"t":20595},{"dx":358,"dy":-226,"t":20675},{"dx":358,"dy":-226,"t":20756},{"dx":358,"dy":-226,"t":20828},{"dx":358,"dy":-226,"t":20902},{"dx":358,"dy":-226,"t":20981},{"dx":358,"dy":-226,"t":21056},{"dx":358,"dy":-226,"t":21127},{"dx":358,"dy":-226,"t":21206},{"dx":358,"dy":-226,"t":21282}],[{"dx":-174,"dy":-109.5,"t":22310},{"dx":-175,"dy":-109.5,"t":22389},{"dx":-175,"dy":-109.5,"t":22463},{"dx":-175,"dy":-109.5,"t":22539},{"dx":-175,"dy":-109.5,"t":22621},{"dx":-175,"dy":-109.5,"t":22695},{"dx":-175,"dy":-109.5,"t":22778},{"dx":-175,"dy":-109.5,"t":22853},{"dx":-175,"dy":-109.5,"t":22925},{"dx":-175,"dy":-109.5,"t":23002},{"dx":-175,"dy":-109.5,"t":23079},{"dx":-175,"dy":-109.5,"t":23155},{"dx":-175,"dy":-109.5,"t":23231},{"dx":-175,"dy":-109.5,"t":23307},{"dx":-175,"dy":-109.5,"t":23385},{"dx":-175,"dy":-109.5,"t":23463},{"dx":-175,"dy":-109.5,"t":23537},{"dx":-175,"dy":-109.5,"t":23615},{"dx":-175,"dy":-109.5,"t":23692},{"dx":-175,"dy":-109.5,"t":23764},{"dx":-175,"dy":-109.5,"t":23839},{"dx":-175,"dy":-109.5,"t":23914},{"dx":-175,"dy":-109.5,"t":23988},{"dx":-175,"dy":-109.5,"t":24061},{"dx":-175,"dy":-109.5,"t":24141},{"dx":-175,"dy":-109.5,"t":24220},{"dx":-175,"dy":-109.5,"t":24294}],[{"dx":-355,"dy":228,"t":25304},{"dx":-355,"dy":228,"t":25383},{"dx":-355,"dy":228,"t":25459},{"dx":-355,"dy":228,"t":25533},{"dx":-355,"dy":228,"t":25616},{"dx":-355,"dy":228,"t":25693},{"dx":-355,"dy":228,"t":25767},{"dx":-355,"dy":228,"t":25851},{"dx":-355,"dy":228,"t":25921},{"dx":-355,"dy":228,"t":25993},{"dx":-355,"dy":228,"t":26073},{"dx":-355,"dy":228,"t":26150},{"dx":-355,"dy":228,"t":26225},{"dx":-355,"dy":228,"t":26299},{"dx":-355,"dy":228,"t":26382},{"dx":-355,"dy":228,"t":26449},{"dx":-355,"dy":228,"t":26522},{"dx":-355,"dy":228,"t":26600},{"dx":-355,"dy":228,"t":26679},{"dx":-355,"dy":228,"t":26753},{"dx":-355,"dy":228,"t":26830},{"dx":-355,"dy":228,"t":26906},{"dx":-355,"dy":228,"t":26987},{"dx":-355,"dy":228,"t":27059},{"dx":-355,"dy":228,"t":27138},{"dx":-355,"dy":228,"t":27214},{"dx":-355,"dy":228,"t":27292},{"dx":-355,"dy":228,"t":27371}],[{"dx":-355,"dy":-222,"t":28390},{"dx":-355,"dy":-222,"t":28468},{"dx":-355,"dy":-222,"t":28545},{"dx":-355,"dy":-222,"t":28619},{"dx":-355,"dy":-222,"t":28695},{"dx":-355,"dy":-222,"t":28773},{"dx":-355,"dy":-222,"t":28852},{"dx":-355,"dy":-222,"t":28929},{"dx":-355,"dy":-222,"t":29007},{"dx":-355,"dy":-222,"t":29084},{"dx":-355,"dy":-222,"t":29163},{"dx":-355,"dy":-222,"t":29241},{"dx":-355,"dy":-222,"t":29315},{"dx":-355,"dy":-222,"t":29391},{"dx":-355,"dy":-222,"t":29464},{"dx":-355,"dy":-222,"t":29548},{"dx":-355,"dy":-222,"t":29625},{"dx":-355,"dy":-222,"t":29697},{"dx":-355,"dy":-222,"t":29775},{"dx":-355,"dy":-222,"t":29854},{"dx":-355,"dy":-222,"t":29927},{"dx":-355,"dy":-222,"t":30006},{"dx":-355,"dy":-222,"t":30083},{"dx":-355,"dy":-222,"t":30155},{"dx":-355,"dy":-222,"t":30228},{"dx":-355,"dy":-222,"t":30306},{"dx":-355,"dy":-222,"t":30383}],[{"dx":185,"dy":115.5,"t":31417},{"dx":185,"dy":115.5,"t":31489},{"dx":185,"dy":115.5,"t":31561},{"dx":185,"dy":115.5,"t":31642},{"dx":185,"dy":115.5,"t":31718},{"dx":185,"dy":115.5,"t":31792},{"dx":185,"dy":115.5,"t":31874},{"dx":185,"dy":115.5,"t":31953},{"dx":185,"dy":115.5,"t":32026},{"dx":185,"dy":115.5,"t":32107},{"dx":185,"dy":115.5,"t":32185},{"dx":185,"dy":115.5,"t":32261},{"dx":185,"dy":115.5,"t":32339},{"dx":185,"dy":115.5,"t":32417},{"dx":185,"dy":115.5,"t":32491},{"dx":185,"dy":115.5,"t":32572},{"dx":185,"dy":115.5,"t":32652},{"dx":185,"dy":115.5,"t":32724},{"dx":185,"dy":115.5,"t":32803},{"dx":185,"dy":115.5,"t":32883},{"dx":185,"dy":115.5,"t":32957},{"dx":185,"dy":115.5,"t":33045},{"dx":185,"dy":115.5,"t":33119},{"dx":185,"dy":115.5,"t":33193},{"dx":185,"dy":115.5,"t":33273},{"dx":185,"dy":115.5,"t":33352},{"dx":185,"dy":115.5,"t":33428}],[{"dx":185,"dy":-109.5,"t":34457},{"dx":185,"dy":-109.5,"t":34530},{"dx":185,"dy":-109.5,"t":34618},{"dx":185,"dy":-109.5,"t":34691},{"dx":185,"dy":-109.5,"t":34774},{"dx":185,"dy":-109.5,"t":34850},{"dx":185,"dy":-109.5,"t":34922},{"dx":185,"dy":-109.5,"t":35002},{"dx":185,"dy":-109.5,"t":35079},{"dx":185,"dy":-109.5,"t":35151},{"dx":185,"dy":-109.5,"t":35229},{"dx":185,"dy":-109.5,"t":35307},{"dx":185,"dy":-109.5,"t":35382},{"dx":185,"dy":-109.5,"t":35457},{"dx":185,"dy":-109.5,"t":35533},{"dx":185,"dy":-109.5,"t":35614},{"dx":185,"dy":-109.5,"t":35685},{"dx":185,"dy":-109.5,"t":35757},{"dx":185,"dy":-109.5,"t":35840},{"dx":185,"dy":-109.5,"t":35917},{"dx":185,"dy":-109.5,"t":35990},{"dx":185,"dy":-109.5,"t":36070},{"dx":185,"dy":-109.5,"t":36146},{"dx":185,"dy":-109.5,"t":36219},{"dx":185,"dy":-109.5,"t":36292},{"dx":185,"dy":-109.5,"t":36373},{"dx":185,"dy":-109.5,"t":36449}],[{"dx":509,"dy":-312,"t":37463},{"dx":509,"dy":-312,"t":37547},{"dx":509,"dy":-312,"t":37621},{"dx":509,"dy":-312,"t":37694},{"dx":509,"dy":-312,"t":37775},{"dx":509,"dy":-312,"t":37852},{"dx":509,"dy":-312,"t":37931},{"dx":509,"dy":-312,"t":38014},{"dx":509,"dy":-312,"t":38090},{"dx":509,"dy":-312,"t":38169},{"dx":509,"dy":-312,"t":38248},{"dx":509,"dy":-312,"t":38325},{"dx":509,"dy":-312,"t":38406},{"dx":509,"dy":-312,"t":38482},{"dx":509,"dy":-312,"t":38561},{"dx":509,"dy":-312,"t":38641},{"dx":509,"dy":-312,"t":38717},{"dx":509,"dy":-312,"t":38791},{"dx":509,"dy":-312,"t":38864},{"dx":509,"dy":-312,"t":38946},{"dx":509,"dy":-312,"t":39019},{"dx":509,"dy":-312,"t":39093},{"dx":509,"dy":-312,"t":39177},{"dx":509,"dy":-312,"t":39249},{"dx":509,"dy":-312,"t":39324},{"dx":509,"dy":-312,"t":39401}]],"percent_in_roi":[100,0,0,0,0,0,0,0,0,0,0,0,0],"average_offset":[{"x":-2.3333333333333335,"y":-0.8148148148148148,"r":0.38131963485137055},{"x":502,"y":314,"r":0},{"x":358,"y":224,"r":0},{"x":-506,"y":-316,"r":0},{"x":-506,"y":314,"r":0},{"x":-182,"y":111.5,"r":0},{"x":358,"y":-226,"r":0},{"x":-174.96296296296296,"y":-109.5,"r":0.03703703703703809},{"x":-355,"y":228,"r":0},{"x":-355,"y":-222,"r":0},{"x":185,"y":115.5,"r":0},{"x":185,"y":-109.5,"r":0},{"x":509,"y":-312,"r":0}],"samples_per_sec":"13.01","clicks":15,"pattern":"cond","trial_type":"webgazer-validate","trial_index":13,"time_elapsed":110055,"internal_node_id":"0.0-10.0-3.0","validation_points":[[50,50],[15,15],[25,25],[85,85],[85,15],[62.5,37.5],[25,75],[62.5,62.5],[75,25],[75,75],[37.5,37.5],[37.5,62.5],[15,85]],"user_agent":"Mozilla/5.0 (Macintosh; Intel Mac OS X 10_15_6) AppleWebKit/605.1.15 (KHTML, like Gecko) Version/13.1.2 Safari/605.1.15","screen_width_px":1440,"screen_height_px":900},{"rt":2420.9999999999854,"stimulus":"\n      <p>Round complete.</p>\n      <p>You can move a little bit, but please try to return you head to the same general location before continuing.</p>\n    ","response":0,"trial_type":"html-button-response","trial_index":14,"time_elapsed":112486,"internal_node_id":"0.0-10.0-4.0","user_agent":"Mozilla/5.0 (Macintosh; Intel Mac OS X 10_15_6) AppleWebKit/605.1.15 (KHTML, like Gecko) Version/13.1.2 Safari/605.1.15","screen_width_px":1440,"screen_height_px":900},{"trial_type":"webgazer-init-camera","trial_index":15,"time_elapsed":119913,"internal_node_id":"0.0-10.0-5.0","user_agent":"Mozilla/5.0 (Macintosh; Intel Mac OS X 10_15_6) AppleWebKit/605.1.15 (KHTML, like Gecko) Version/13.1.2 Safari/605.1.15","screen_width_px":1440,"screen_height_px":900},{"rt":1924,"stimulus":"\n      <p>Calibration phase next.</p>\n      <p>Click on the dots.</p>\n    ","response":0,"trial_type":"html-button-response","trial_index":16,"time_elapsed":121839,"internal_node_id":"0.0-10.0-0.1","user_agent":"Mozilla/5.0 (Macintosh; Intel Mac OS X 10_15_6) AppleWebKit/605.1.15 (KHTML, like Gecko) Version/13.1.2 Safari/605.1.15","screen_width_px":1440,"screen_height_px":900},{"trial_type":"webgazer-calibrate","trial_index":17,"time_elapsed":164539,"internal_node_id":"0.0-10.0-1.1","user_agent":"Mozilla/5.0 (Macintosh; Intel Mac OS X 10_15_6) AppleWebKit/605.1.15 (KHTML, like Gecko) Version/13.1.2 Safari/605.1.15","screen_width_px":1440,"screen_height_px":900},{"rt":1324,"stimulus":"\n      <p>Validation phase next.</p>\n      <p>Look at the dots.</p>\n    ","response":0,"trial_type":"html-button-response","trial_index":18,"time_elapsed":165866,"internal_node_id":"0.0-10.0-2.1","user_agent":"Mozilla/5.0 (Macintosh; Intel Mac OS X 10_15_6) AppleWebKit/605.1.15 (KHTML, like Gecko) Version/13.1.2 Safari/605.1.15","screen_width_px":1440,"screen_height_px":900},{"raw_gaze":[[{"dx":-505,"dy":314,"t":1068},{"dx":-504,"dy":314,"t":1143},{"dx":-504,"dy":314,"t":1219},{"dx":-504,"dy":314,"t":1288},{"dx":-504,"dy":315,"t":1362},{"dx":-505,"dy":315,"t":1430},{"dx":-505,"dy":315,"t":1499},{"dx":-505,"dy":315,"t":1573},{"dx":-505,"dy":315,"t":1641},{"dx":-505,"dy":315,"t":1720},{"dx":-505,"dy":315,"t":1801},{"dx":-505,"dy":315,"t":1876},{"dx":-505,"dy":315,"t":1948},{"dx":-505,"dy":315,"t":2017},{"dx":-505,"dy":315,"t":2087},{"dx":-505,"dy":315,"t":2163},{"dx":-505,"dy":315,"t":2235},{"dx":-505,"dy":315,"t":2307},{"dx":-505,"dy":315,"t":2388},{"dx":-505,"dy":315,"t":2466},{"dx":-505,"dy":315,"t":2540},{"dx":-505,"dy":315,"t":2613},{"dx":-505,"dy":315,"t":2689},{"dx":-505,"dy":315,"t":2766},{"dx":-505,"dy":315,"t":2842},{"dx":-505,"dy":315,"t":2916},{"dx":-505,"dy":315,"t":3000},{"dx":-505,"dy":315,"t":3075}],[{"dx":179,"dy":-112.5,"t":4098},{"dx":179,"dy":-112.5,"t":4167},{"dx":179,"dy":-112.5,"t":4234},{"dx":179,"dy":-112.5,"t":4305},{"dx":179,"dy":-112.5,"t":4369},{"dx":179,"dy":-112.5,"t":4437},{"dx":179,"dy":-112.5,"t":4506},{"dx":179,"dy":-112.5,"t":4574},{"dx":179,"dy":-112.5,"t":4645},{"dx":179,"dy":-112.5,"t":4712},{"dx":179,"dy":-112.5,"t":4780},{"dx":179,"dy":-112.5,"t":4848},{"dx":179,"dy":-112.5,"t":4917},{"dx":179,"dy":-112.5,"t":4984},{"dx":179,"dy":-112.5,"t":5056},{"dx":179,"dy":-112.5,"t":5124},{"dx":179,"dy":-112.5,"t":5193},{"dx":179,"dy":-112.5,"t":5264},{"dx":179,"dy":-112.5,"t":5333},{"dx":179,"dy":-112.5,"t":5401},{"dx":179,"dy":-112.5,"t":5473},{"dx":179,"dy":-112.5,"t":5548},{"dx":179,"dy":-112.5,"t":5616},{"dx":179,"dy":-112.5,"t":5683},{"dx":179,"dy":-112.5,"t":5755},{"dx":179,"dy":-112.5,"t":5823},{"dx":179,"dy":-112.5,"t":5891},{"dx":179,"dy":-112.5,"t":5964},{"dx":179,"dy":-112.5,"t":6033},{"dx":179,"dy":-112.5,"t":6102}],[{"dx":-1,"dy":0,"t":7124},{"dx":-1,"dy":0,"t":7195},{"dx":-1,"dy":0,"t":7263},{"dx":-1,"dy":0,"t":7333},{"dx":-1,"dy":0,"t":7401},{"dx":-1,"dy":0,"t":7468},{"dx":-1,"dy":0,"t":7538},{"dx":-1,"dy":0,"t":7606},{"dx":-1,"dy":0,"t":7674},{"dx":-1,"dy":0,"t":7746},{"dx":-1,"dy":0,"t":7814},{"dx":-1,"dy":0,"t":7884},{"dx":-1,"dy":0,"t":7952},{"dx":-1,"dy":0,"t":8022},{"dx":-1,"dy":0,"t":8090},{"dx":-1,"dy":0,"t":8158},{"dx":-1,"dy":0,"t":8225},{"dx":-1,"dy":0,"t":8296},{"dx":-1,"dy":0,"t":8365},{"dx":-1,"dy":0,"t":8434},{"dx":-1,"dy":0,"t":8505},{"dx":-1,"dy":0,"t":8574},{"dx":-1,"dy":0,"t":8641},{"dx":-1,"dy":0,"t":8713},{"dx":-1,"dy":0,"t":8781},{"dx":-1,"dy":0,"t":8849},{"dx":-1,"dy":0,"t":8921},{"dx":-1,"dy":0,"t":8988},{"dx":-1,"dy":0,"t":9056},{"dx":-1,"dy":0,"t":9127}],[{"dx":359,"dy":-225,"t":10147},{"dx":359,"dy":-225,"t":10218},{"dx":359,"dy":-225,"t":10285},{"dx":359,"dy":-225,"t":10354},{"dx":359,"dy":-225,"t":10422},{"dx":359,"dy":-225,"t":10490},{"dx":359,"dy":-225,"t":10561},{"dx":359,"dy":-225,"t":10629},{"dx":359,"dy":-225,"t":10697},{"dx":359,"dy":-225,"t":10768},{"dx":359,"dy":-225,"t":10837},{"dx":359,"dy":-225,"t":10905},{"dx":359,"dy":-225,"t":10975},{"dx":359,"dy":-225,"t":11043},{"dx":359,"dy":-225,"t":11114},{"dx":359,"dy":-225,"t":11182},{"dx":359,"dy":-225,"t":11249},{"dx":359,"dy":-225,"t":11319},{"dx":359,"dy":-225,"t":11387},{"dx":359,"dy":-225,"t":11455},{"dx":359,"dy":-225,"t":11525},{"dx":359,"dy":-225,"t":11594},{"dx":359,"dy":-225,"t":11663},{"dx":359,"dy":-225,"t":11733},{"dx":359,"dy":-225,"t":11803},{"dx":359,"dy":-225,"t":11870},{"dx":359,"dy":-225,"t":11942},{"dx":359,"dy":-225,"t":12009},{"dx":359,"dy":-225,"t":12078},{"dx":359,"dy":-225,"t":12145}],[{"dx":-181,"dy":112.5,"t":13166},{"dx":-181,"dy":112.5,"t":13235},{"dx":-181,"dy":112.5,"t":13302},{"dx":-181,"dy":112.5,"t":13372},{"dx":-181,"dy":112.5,"t":13441},{"dx":-181,"dy":112.5,"t":13508},{"dx":-181,"dy":112.5,"t":13581},{"dx":-181,"dy":112.5,"t":13649},{"dx":-181,"dy":112.5,"t":13720},{"dx":-181,"dy":112.5,"t":13788},{"dx":-181,"dy":112.5,"t":13859},{"dx":-181,"dy":112.5,"t":13927},{"dx":-181,"dy":112.5,"t":13997},{"dx":-181,"dy":112.5,"t":14067},{"dx":-181,"dy":112.5,"t":14135},{"dx":-181,"dy":112.5,"t":14207},{"dx":-181,"dy":112.5,"t":14275},{"dx":-181,"dy":112.5,"t":14343},{"dx":-181,"dy":112.5,"t":14414},{"dx":-181,"dy":112.5,"t":14480},{"dx":-181,"dy":112.5,"t":14548},{"dx":-181,"dy":112.5,"t":14616},{"dx":-181,"dy":112.5,"t":14683},{"dx":-181,"dy":112.5,"t":14751},{"dx":-181,"dy":112.5,"t":14822},{"dx":-181,"dy":112.5,"t":14889},{"dx":-181,"dy":112.5,"t":14957},{"dx":-181,"dy":112.5,"t":15028},{"dx":-181,"dy":112.5,"t":15096},{"dx":-181,"dy":112.5,"t":15164}],[{"dx":359,"dy":225,"t":16173},{"dx":359,"dy":225,"t":16241},{"dx":359,"dy":225,"t":16309},{"dx":359,"dy":225,"t":16380},{"dx":359,"dy":225,"t":16447},{"dx":359,"dy":225,"t":16518},{"dx":359,"dy":225,"t":16586},{"dx":359,"dy":225,"t":16654},{"dx":359,"dy":225,"t":16725},{"dx":359,"dy":225,"t":16795},{"dx":359,"dy":225,"t":16864},{"dx":359,"dy":225,"t":16934},{"dx":359,"dy":225,"t":17002},{"dx":359,"dy":225,"t":17070},{"dx":359,"dy":225,"t":17142},{"dx":359,"dy":225,"t":17210},{"dx":359,"dy":225,"t":17279},{"dx":359,"dy":225,"t":17346},{"dx":359,"dy":225,"t":17413},{"dx":359,"dy":225,"t":17484},{"dx":359,"dy":225,"t":17553},{"dx":359,"dy":225,"t":17621},{"dx":359,"dy":225,"t":17694},{"dx":359,"dy":225,"t":17766},{"dx":359,"dy":225,"t":17844},{"dx":359,"dy":225,"t":17923},{"dx":359,"dy":225,"t":17999},{"dx":359,"dy":225,"t":18080},{"dx":359,"dy":225,"t":18160},{"dx":359,"dy":225,"t":18234}],[{"dx":503,"dy":-315,"t":19265},{"dx":503,"dy":-315,"t":19340},{"dx":503,"dy":-315,"t":19425},{"dx":503,"dy":-315,"t":19496},{"dx":503,"dy":-315,"t":19571},{"dx":503,"dy":-315,"t":19653},{"dx":503,"dy":-315,"t":19730},{"dx":503,"dy":-315,"t":19804},{"dx":503,"dy":-315,"t":19888},{"dx":503,"dy":-315,"t":19965},{"dx":503,"dy":-315,"t":20047},{"dx":503,"dy":-315,"t":20125},{"dx":503,"dy":-315,"t":20201},{"dx":503,"dy":-315,"t":20279},{"dx":503,"dy":-315,"t":20359},{"dx":503,"dy":-315,"t":20439},{"dx":503,"dy":-315,"t":20522},{"dx":503,"dy":-315,"t":20601},{"dx":503,"dy":-315,"t":20680},{"dx":503,"dy":-315,"t":20760},{"dx":503,"dy":-315,"t":20837},{"dx":503,"dy":-315,"t":20915},{"dx":503,"dy":-315,"t":20995},{"dx":503,"dy":-315,"t":21069},{"dx":503,"dy":-315,"t":21149},{"dx":503,"dy":-315,"t":21227},{"dx":503,"dy":-315,"t":21305}],[{"dx":-181,"dy":-112.5,"t":22337},{"dx":-181,"dy":-112.5,"t":22413},{"dx":-181,"dy":-112.5,"t":22496},{"dx":-181,"dy":-112.5,"t":22568},{"dx":-181,"dy":-112.5,"t":22648},{"dx":-181,"dy":-112.5,"t":22728},{"dx":-181,"dy":-112.5,"t":22803},{"dx":-181,"dy":-112.5,"t":22881},{"dx":-181,"dy":-112.5,"t":22961},{"dx":-181,"dy":-112.5,"t":23034},{"dx":-181,"dy":-112.5,"t":23112},{"dx":-181,"dy":-112.5,"t":23190},{"dx":-181,"dy":-112.5,"t":23262},{"dx":-181,"dy":-112.5,"t":23337},{"dx":-181,"dy":-112.5,"t":23421},{"dx":-181,"dy":-112.5,"t":23496},{"dx":-181,"dy":-112.5,"t":23571},{"dx":-181,"dy":-112.5,"t":23655},{"dx":-181,"dy":-112.5,"t":23730},{"dx":-181,"dy":-112.5,"t":23803},{"dx":-181,"dy":-112.5,"t":23887},{"dx":-181,"dy":-112.5,"t":23961},{"dx":-181,"dy":-112.5,"t":24033},{"dx":-181,"dy":-112.5,"t":24115},{"dx":-181,"dy":-112.5,"t":24192},{"dx":-181,"dy":-112.5,"t":24267},{"dx":-181,"dy":-112.5,"t":24349}],[{"dx":-361,"dy":225,"t":25389},{"dx":-361,"dy":225,"t":25467},{"dx":-361,"dy":225,"t":25544},{"dx":-361,"dy":225,"t":25623},{"dx":-361,"dy":225,"t":25700},{"dx":-361,"dy":225,"t":25776},{"dx":-361,"dy":225,"t":25855},{"dx":-361,"dy":225,"t":25939},{"dx":-361,"dy":225,"t":26022},{"dx":-361,"dy":225,"t":26095},{"dx":-361,"dy":225,"t":26171},{"dx":-361,"dy":225,"t":26252},{"dx":-361,"dy":225,"t":26327},{"dx":-361,"dy":225,"t":26407},{"dx":-361,"dy":225,"t":26487},{"dx":-361,"dy":225,"t":26560},{"dx":-361,"dy":225,"t":26638},{"dx":-361,"dy":225,"t":26722},{"dx":-361,"dy":225,"t":26794},{"dx":-361,"dy":225,"t":26873},{"dx":-361,"dy":225,"t":26952},{"dx":-361,"dy":225,"t":27026},{"dx":-361,"dy":225,"t":27111},{"dx":-361,"dy":225,"t":27191},{"dx":-361,"dy":225,"t":27266},{"dx":-361,"dy":225,"t":27346},{"dx":-361,"dy":225,"t":27423}],[{"dx":179,"dy":112.5,"t":28432},{"dx":179,"dy":112.5,"t":28511},{"dx":179,"dy":112.5,"t":28590},{"dx":179,"dy":112.5,"t":28670},{"dx":179,"dy":112.5,"t":28751},{"dx":179,"dy":112.5,"t":28831},{"dx":179,"dy":112.5,"t":28908},{"dx":179,"dy":112.5,"t":28985},{"dx":179,"dy":112.5,"t":29065},{"dx":179,"dy":112.5,"t":29143},{"dx":179,"dy":112.5,"t":29224},{"dx":179,"dy":112.5,"t":29302},{"dx":179,"dy":112.5,"t":29379},{"dx":179,"dy":112.5,"t":29457},{"dx":179,"dy":112.5,"t":29535},{"dx":179,"dy":112.5,"t":29616},{"dx":179,"dy":112.5,"t":29697},{"dx":179,"dy":112.5,"t":29782},{"dx":179,"dy":112.5,"t":29858},{"dx":179,"dy":112.5,"t":29943},{"dx":179,"dy":112.5,"t":30021},{"dx":179,"dy":112.5,"t":30099},{"dx":179,"dy":112.5,"t":30182},{"dx":179,"dy":112.5,"t":30262},{"dx":179,"dy":112.5,"t":30336},{"dx":179,"dy":112.5,"t":30415},{"dx":179,"dy":112.5,"t":30497}],[{"dx":-361,"dy":-225,"t":31520},{"dx":-361,"dy":-225,"t":31594},{"dx":-361,"dy":-225,"t":31670},{"dx":-361,"dy":-225,"t":31756},{"dx":-361,"dy":-225,"t":31829},{"dx":-361,"dy":-225,"t":31907},{"dx":-361,"dy":-225,"t":31989},{"dx":-361,"dy":-225,"t":32065},{"dx":-361,"dy":-225,"t":32141},{"dx":-361,"dy":-225,"t":32223},{"dx":-361,"dy":-225,"t":32301},{"dx":-361,"dy":-225,"t":32388},{"dx":-361,"dy":-225,"t":32464},{"dx":-361,"dy":-225,"t":32547},{"dx":-361,"dy":-225,"t":32628},{"dx":-361,"dy":-225,"t":32708},{"dx":-361,"dy":-225,"t":32788},{"dx":-361,"dy":-225,"t":32863},{"dx":-361,"dy":-225,"t":32940},{"dx":-361,"dy":-225,"t":33016},{"dx":-361,"dy":-225,"t":33094},{"dx":-361,"dy":-225,"t":33169},{"dx":-361,"dy":-225,"t":33252},{"dx":-361,"dy":-225,"t":33327},{"dx":-361,"dy":-225,"t":33402},{"dx":-361,"dy":-225,"t":33485},{"dx":-361,"dy":-225,"t":33558}],[{"dx":503,"dy":315,"t":34599},{"dx":503,"dy":315,"t":34682},{"dx":503,"dy":315,"t":34760},{"dx":503,"dy":315,"t":34842},{"dx":503,"dy":315,"t":34921},{"dx":503,"dy":315,"t":34994},{"dx":503,"dy":315,"t":35072},{"dx":503,"dy":315,"t":35147},{"dx":503,"dy":315,"t":35228},{"dx":503,"dy":315,"t":35318},{"dx":503,"dy":315,"t":35392},{"dx":503,"dy":315,"t":35467},{"dx":503,"dy":315,"t":35553},{"dx":503,"dy":315,"t":35628},{"dx":503,"dy":315,"t":35711},{"dx":503,"dy":315,"t":35793},{"dx":503,"dy":315,"t":35869},{"dx":503,"dy":315,"t":35951},{"dx":503,"dy":315,"t":36030},{"dx":503,"dy":315,"t":36112},{"dx":503,"dy":315,"t":36191},{"dx":503,"dy":315,"t":36267},{"dx":503,"dy":315,"t":36351},{"dx":503,"dy":315,"t":36430},{"dx":503,"dy":315,"t":36514},{"dx":503,"dy":315,"t":36593}],[{"dx":-505,"dy":-315,"t":37623},{"dx":-505,"dy":-315,"t":37699},{"dx":-505,"dy":-315,"t":37777},{"dx":-505,"dy":-315,"t":37855},{"dx":-505,"dy":-315,"t":37936},{"dx":-505,"dy":-315,"t":38018},{"dx":-505,"dy":-315,"t":38096},{"dx":-505,"dy":-315,"t":38172},{"dx":-505,"dy":-315,"t":38251},{"dx":-505,"dy":-315,"t":38328},{"dx":-505,"dy":-315,"t":38404},{"dx":-505,"dy":-315,"t":38486},{"dx":-505,"dy":-315,"t":38559},{"dx":-505,"dy":-315,"t":38641},{"dx":-505,"dy":-315,"t":38725},{"dx":-505,"dy":-315,"t":38799},{"dx":-505,"dy":-315,"t":38881},{"dx":-505,"dy":-315,"t":38955},{"dx":-505,"dy":-315,"t":39029},{"dx":-505,"dy":-315,"t":39113},{"dx":-505,"dy":-315,"t":39187},{"dx":-505,"dy":-315,"t":39261},{"dx":-505,"dy":-315,"t":39343},{"dx":-505,"dy":-315,"t":39422},{"dx":-505,"dy":-315,"t":39497},{"dx":-505,"dy":-315,"t":39584}]],"percent_in_roi":[0,0,100,0,0,0,0,0,0,0,0,0,0],"average_offset":[{"x":-504.85714285714283,"y":314.85714285714283,"r":0.3030457633657149},{"x":179,"y":-112.5,"r":0},{"x":-1,"y":0,"r":0},{"x":359,"y":-225,"r":0},{"x":-181,"y":112.5,"r":0},{"x":359,"y":225,"r":0},{"x":503,"y":-315,"r":0},{"x":-181,"y":-112.5,"r":0},{"x":-361,"y":225,"r":0},{"x":179,"y":112.5,"r":0},{"x":-361,"y":-225,"r":0},{"x":503,"y":315,"r":0},{"x":-505,"y":-315,"r":0}],"samples_per_sec":"13.38","clicks":25,"pattern":"cond","trial_type":"webgazer-validate","trial_index":19,"time_elapsed":206488,"internal_node_id":"0.0-10.0-3.1","validation_points":[[85,15],[37.5,62.5],[50,50],[25,75],[62.5,37.5],[25,25],[15,85],[62.5,62.5],[75,25],[37.5,37.5],[75,75],[15,15],[85,85]],"user_agent":"Mozilla/5.0 (Macintosh; Intel Mac OS X 10_15_6) AppleWebKit/605.1.15 (KHTML, like Gecko) Version/13.1.2 Safari/605.1.15","screen_width_px":1440,"screen_height_px":900},{"rt":1082,"stimulus":"\n      <p>Round complete.</p>\n      <p>You can move a little bit, but please try to return you head to the same general location before continuing.</p>\n    ","response":0,"trial_type":"html-button-response","trial_index":20,"time_elapsed":207576,"internal_node_id":"0.0-10.0-4.1","user_agent":"Mozilla/5.0 (Macintosh; Intel Mac OS X 10_15_6) AppleWebKit/605.1.15 (KHTML, like Gecko) Version/13.1.2 Safari/605.1.15","screen_width_px":1440,"screen_height_px":900},{"trial_type":"webgazer-init-camera","trial_index":21,"time_elapsed":209904,"internal_node_id":"0.0-10.0-5.1","user_agent":"Mozilla/5.0 (Macintosh; Intel Mac OS X 10_15_6) AppleWebKit/605.1.15 (KHTML, like Gecko) Version/13.1.2 Safari/605.1.15","screen_width_px":1440,"screen_height_px":900},{"rt":944,"stimulus":"\n      <p>Calibration phase next.</p>\n      <p>Click on the dots.</p>\n    ","response":0,"trial_type":"html-button-response","trial_index":22,"time_elapsed":210850,"internal_node_id":"0.0-10.0-0.2","user_agent":"Mozilla/5.0 (Macintosh; Intel Mac OS X 10_15_6) AppleWebKit/605.1.15 (KHTML, like Gecko) Version/13.1.2 Safari/605.1.15","screen_width_px":1440,"screen_height_px":900},{"trial_type":"webgazer-calibrate","trial_index":23,"time_elapsed":251438,"internal_node_id":"0.0-10.0-1.2","user_agent":"Mozilla/5.0 (Macintosh; Intel Mac OS X 10_15_6) AppleWebKit/605.1.15 (KHTML, like Gecko) Version/13.1.2 Safari/605.1.15","screen_width_px":1440,"screen_height_px":900},{"rt":2518,"stimulus":"\n      <p>Validation phase next.</p>\n      <p>Look at the dots.</p>\n    ","response":0,"trial_type":"html-button-response","trial_index":24,"time_elapsed":253959,"internal_node_id":"0.0-10.0-2.2","user_agent":"Mozilla/5.0 (Macintosh; Intel Mac OS X 10_15_6) AppleWebKit/605.1.15 (KHTML, like Gecko) Version/13.1.2 Safari/605.1.15","screen_width_px":1440,"screen_height_px":900},{"raw_gaze":[[{"dx":359,"dy":222,"t":1063},{"dx":358,"dy":223,"t":1139},{"dx":358,"dy":223,"t":1215},{"dx":358,"dy":223,"t":1297},{"dx":358,"dy":223,"t":1372},{"dx":358,"dy":223,"t":1449},{"dx":358,"dy":223,"t":1532},{"dx":359,"dy":223,"t":1605},{"dx":359,"dy":223,"t":1684},{"dx":359,"dy":223,"t":1763},{"dx":359,"dy":223,"t":1837},{"dx":359,"dy":223,"t":1915},{"dx":359,"dy":223,"t":1994},{"dx":359,"dy":223,"t":2068},{"dx":359,"dy":223,"t":2144},{"dx":359,"dy":223,"t":2222},{"dx":359,"dy":223,"t":2301},{"dx":359,"dy":223,"t":2380},{"dx":359,"dy":223,"t":2459},{"dx":359,"dy":223,"t":2538},{"dx":359,"dy":223,"t":2613},{"dx":359,"dy":223,"t":2695},{"dx":359,"dy":223,"t":2773},{"dx":359,"dy":223,"t":2847},{"dx":359,"dy":223,"t":2930},{"dx":359,"dy":223,"t":3006},{"dx":359,"dy":223,"t":3086}],[{"dx":359,"dy":-227,"t":4102},{"dx":359,"dy":-227,"t":4175},{"dx":359,"dy":-227,"t":4253},{"dx":359,"dy":-227,"t":4335},{"dx":359,"dy":-227,"t":4409},{"dx":359,"dy":-227,"t":4485},{"dx":359,"dy":-227,"t":4568},{"dx":359,"dy":-227,"t":4640},{"dx":359,"dy":-227,"t":4718},{"dx":359,"dy":-227,"t":4798},{"dx":359,"dy":-227,"t":4871},{"dx":359,"dy":-227,"t":4946},{"dx":359,"dy":-227,"t":5032},{"dx":359,"dy":-227,"t":5105},{"dx":359,"dy":-227,"t":5179},{"dx":359,"dy":-227,"t":5264},{"dx":359,"dy":-227,"t":5338},{"dx":359,"dy":-227,"t":5413},{"dx":359,"dy":-227,"t":5496},{"dx":359,"dy":-227,"t":5578},{"dx":359,"dy":-227,"t":5662},{"dx":359,"dy":-227,"t":5744},{"dx":359,"dy":-227,"t":5823},{"dx":359,"dy":-227,"t":5900},{"dx":359,"dy":-227,"t":5976},{"dx":359,"dy":-227,"t":6055},{"dx":359,"dy":-227,"t":6132}],[{"dx":179,"dy":110.5,"t":7135},{"dx":179,"dy":110.5,"t":7210},{"dx":179,"dy":110.5,"t":7292},{"dx":179,"dy":110.5,"t":7370},{"dx":179,"dy":110.5,"t":7445},{"dx":179,"dy":110.5,"t":7529},{"dx":179,"dy":110.5,"t":7601},{"dx":179,"dy":110.5,"t":7674},{"dx":179,"dy":110.5,"t":7762},{"dx":179,"dy":110.5,"t":7838},{"dx":179,"dy":110.5,"t":7916},{"dx":179,"dy":110.5,"t":7999},{"dx":179,"dy":110.5,"t":8083},{"dx":179,"dy":110.5,"t":8166},{"dx":179,"dy":110.5,"t":8240},{"dx":179,"dy":110.5,"t":8317},{"dx":179,"dy":110.5,"t":8398},{"dx":179,"dy":110.5,"t":8474},{"dx":179,"dy":110.5,"t":8553},{"dx":179,"dy":110.5,"t":8633},{"dx":179,"dy":110.5,"t":8711},{"dx":179,"dy":110.5,"t":8797},{"dx":179,"dy":110.5,"t":8871},{"dx":179,"dy":110.5,"t":8950},{"dx":179,"dy":110.5,"t":9033},{"dx":179,"dy":110.5,"t":9107},{"dx":179,"dy":110.5,"t":9186}],[{"dx":-1,"dy":-2,"t":10201},{"dx":-1,"dy":-2,"t":10277},{"dx":-1,"dy":-2,"t":10356},{"dx":-1,"dy":-2,"t":10434},{"dx":-1,"dy":-2,"t":10508},{"dx":-1,"dy":-2,"t":10592},{"dx":-1,"dy":-2,"t":10668},{"dx":-1,"dy":-2,"t":10743},{"dx":-1,"dy":-2,"t":10829},{"dx":-1,"dy":-2,"t":10907},{"dx":-1,"dy":-2,"t":10988},{"dx":-1,"dy":-2,"t":11067},{"dx":-1,"dy":-2,"t":11141},{"dx":-1,"dy":-2,"t":11224},{"dx":-1,"dy":-2,"t":11303},{"dx":-1,"dy":-2,"t":11375},{"dx":-1,"dy":-2,"t":11458},{"dx":-1,"dy":-2,"t":11536},{"dx":-1,"dy":-2,"t":11616},{"dx":-1,"dy":-2,"t":11698},{"dx":-1,"dy":-2,"t":11770},{"dx":-1,"dy":-2,"t":11847},{"dx":-1,"dy":-2,"t":11928},{"dx":-1,"dy":-2,"t":12002},{"dx":-1,"dy":-2,"t":12080},{"dx":-1,"dy":-2,"t":12163},{"dx":-1,"dy":-2,"t":12241}],[{"dx":503,"dy":-317,"t":13243},{"dx":503,"dy":-317,"t":13327},{"dx":503,"dy":-317,"t":13402},{"dx":503,"dy":-317,"t":13482},{"dx":503,"dy":-317,"t":13562},{"dx":503,"dy":-317,"t":13639},{"dx":503,"dy":-317,"t":13717},{"dx":503,"dy":-317,"t":13795},{"dx":503,"dy":-317,"t":13876},{"dx":503,"dy":-317,"t":13958},{"dx":503,"dy":-317,"t":14035},{"dx":503,"dy":-317,"t":14120},{"dx":503,"dy":-317,"t":14199},{"dx":503,"dy":-317,"t":14278},{"dx":503,"dy":-317,"t":14357},{"dx":503,"dy":-317,"t":14436},{"dx":503,"dy":-317,"t":14525},{"dx":503,"dy":-317,"t":14601},{"dx":503,"dy":-317,"t":14681},{"dx":503,"dy":-317,"t":14758},{"dx":503,"dy":-317,"t":14830},{"dx":503,"dy":-317,"t":14906},{"dx":503,"dy":-317,"t":14985},{"dx":503,"dy":-317,"t":15062},{"dx":503,"dy":-317,"t":15139},{"dx":503,"dy":-317,"t":15222},{"dx":503,"dy":-317,"t":15301}],[{"dx":-505,"dy":-317,"t":16337},{"dx":-505,"dy":-317,"t":16415},{"dx":-505,"dy":-317,"t":16495},{"dx":-505,"dy":-317,"t":16576},{"dx":-505,"dy":-317,"t":16656},{"dx":-505,"dy":-317,"t":16732},{"dx":-505,"dy":-317,"t":16815},{"dx":-505,"dy":-317,"t":16894},{"dx":-505,"dy":-317,"t":16970},{"dx":-505,"dy":-317,"t":17046},{"dx":-505,"dy":-317,"t":17127},{"dx":-505,"dy":-317,"t":17201},{"dx":-505,"dy":-317,"t":17277},{"dx":-505,"dy":-317,"t":17360},{"dx":-505,"dy":-317,"t":17436},{"dx":-505,"dy":-317,"t":17513},{"dx":-505,"dy":-317,"t":17596},{"dx":-505,"dy":-317,"t":17673},{"dx":-505,"dy":-317,"t":17752},{"dx":-505,"dy":-317,"t":17833},{"dx":-505,"dy":-317,"t":17909},{"dx":-505,"dy":-317,"t":17992},{"dx":-505,"dy":-317,"t":18064},{"dx":-505,"dy":-317,"t":18141},{"dx":-505,"dy":-317,"t":18226},{"dx":-505,"dy":-317,"t":18298},{"dx":-505,"dy":-317,"t":18375}],[{"dx":-181,"dy":110.5,"t":19397},{"dx":-181,"dy":110.5,"t":19474},{"dx":-181,"dy":110.5,"t":19556},{"dx":-181,"dy":110.5,"t":19635},{"dx":-181,"dy":110.5,"t":19711},{"dx":-181,"dy":110.5,"t":19793},{"dx":-181,"dy":110.5,"t":19867},{"dx":-181,"dy":110.5,"t":19944},{"dx":-181,"dy":110.5,"t":20027},{"dx":-181,"dy":110.5,"t":20099},{"dx":-181,"dy":110.5,"t":20181},{"dx":-181,"dy":110.5,"t":20258},{"dx":-181,"dy":110.5,"t":20334},{"dx":-181,"dy":110.5,"t":20417},{"dx":-181,"dy":110.5,"t":20499},{"dx":-181,"dy":110.5,"t":20581},{"dx":-181,"dy":110.5,"t":20663},{"dx":-181,"dy":110.5,"t":20737},{"dx":-181,"dy":110.5,"t":20815},{"dx":-181,"dy":110.5,"t":20896},{"dx":-181,"dy":110.5,"t":20968},{"dx":-181,"dy":110.5,"t":21047},{"dx":-181,"dy":110.5,"t":21129},{"dx":-181,"dy":110.5,"t":21202},{"dx":-181,"dy":110.5,"t":21286},{"dx":-181,"dy":110.5,"t":21366},{"dx":-181,"dy":110.5,"t":21443}],[{"dx":-361,"dy":-227,"t":22453},{"dx":-361,"dy":-227,"t":22528},{"dx":-361,"dy":-227,"t":22607},{"dx":-361,"dy":-227,"t":22686},{"dx":-361,"dy":-227,"t":22766},{"dx":-361,"dy":-227,"t":22849},{"dx":-361,"dy":-227,"t":22925},{"dx":-361,"dy":-227,"t":23002},{"dx":-361,"dy":-227,"t":23081},{"dx":-361,"dy":-227,"t":23160},{"dx":-361,"dy":-227,"t":23241},{"dx":-361,"dy":-227,"t":23322},{"dx":-361,"dy":-227,"t":23396},{"dx":-361,"dy":-227,"t":23474},{"dx":-361,"dy":-227,"t":23561},{"dx":-361,"dy":-227,"t":23639},{"dx":-361,"dy":-227,"t":23722},{"dx":-361,"dy":-227,"t":23798},{"dx":-361,"dy":-227,"t":23882},{"dx":-361,"dy":-227,"t":23970},{"dx":-361,"dy":-227,"t":24055},{"dx":-361,"dy":-227,"t":24134},{"dx":-361,"dy":-227,"t":24212},{"dx":-361,"dy":-227,"t":24294},{"dx":-361,"dy":-227,"t":24368},{"dx":-361,"dy":-227,"t":24445}],[{"dx":-361,"dy":223,"t":25448},{"dx":-361,"dy":223,"t":25525},{"dx":-361,"dy":223,"t":25598},{"dx":-361,"dy":223,"t":25677},{"dx":-361,"dy":223,"t":25756},{"dx":-361,"dy":223,"t":25834},{"dx":-361,"dy":223,"t":25916},{"dx":-361,"dy":223,"t":25990},{"dx":-361,"dy":223,"t":26065},{"dx":-361,"dy":223,"t":26143},{"dx":-361,"dy":223,"t":26222},{"dx":-361,"dy":223,"t":26297},{"dx":-361,"dy":223,"t":26373},{"dx":-361,"dy":223,"t":26453},{"dx":-361,"dy":223,"t":26528},{"dx":-361,"dy":223,"t":26607},{"dx":-361,"dy":223,"t":26686},{"dx":-361,"dy":223,"t":26761},{"dx":-361,"dy":223,"t":26843},{"dx":-361,"dy":223,"t":26924},{"dx":-361,"dy":223,"t":26999},{"dx":-361,"dy":223,"t":27078},{"dx":-361,"dy":223,"t":27156},{"dx":-361,"dy":223,"t":27231},{"dx":-361,"dy":223,"t":27309},{"dx":-361,"dy":223,"t":27387},{"dx":-361,"dy":223,"t":27459}],[{"dx":-505,"dy":313,"t":28489},{"dx":-505,"dy":313,"t":28562},{"dx":-505,"dy":313,"t":28640},{"dx":-505,"dy":313,"t":28722},{"dx":-505,"dy":313,"t":28795},{"dx":-505,"dy":313,"t":28878},{"dx":-505,"dy":313,"t":28961},{"dx":-505,"dy":313,"t":29034},{"dx":-505,"dy":313,"t":29117},{"dx":-505,"dy":313,"t":29199},{"dx":-505,"dy":313,"t":29276},{"dx":-505,"dy":313,"t":29353},{"dx":-505,"dy":313,"t":29430},{"dx":-505,"dy":313,"t":29510},{"dx":-505,"dy":313,"t":29589},{"dx":-505,"dy":313,"t":29667},{"dx":-505,"dy":313,"t":29747},{"dx":-505,"dy":313,"t":29825},{"dx":-505,"dy":313,"t":29909},{"dx":-505,"dy":313,"t":29990},{"dx":-505,"dy":313,"t":30061},{"dx":-505,"dy":313,"t":30140},{"dx":-505,"dy":313,"t":30223},{"dx":-505,"dy":313,"t":30296},{"dx":-505,"dy":313,"t":30376},{"dx":-505,"dy":313,"t":30458},{"dx":-505,"dy":313,"t":30535}],[{"dx":179,"dy":-114.5,"t":31539},{"dx":179,"dy":-114.5,"t":31621},{"dx":179,"dy":-114.5,"t":31701},{"dx":179,"dy":-114.5,"t":31789},{"dx":179,"dy":-114.5,"t":31862},{"dx":179,"dy":-114.5,"t":31940},{"dx":179,"dy":-114.5,"t":32023},{"dx":179,"dy":-114.5,"t":32095},{"dx":179,"dy":-114.5,"t":32175},{"dx":179,"dy":-114.5,"t":32258},{"dx":179,"dy":-114.5,"t":32334},{"dx":179,"dy":-114.5,"t":32418},{"dx":179,"dy":-114.5,"t":32496},{"dx":179,"dy":-114.5,"t":32573},{"dx":179,"dy":-114.5,"t":32655},{"dx":179,"dy":-114.5,"t":32728},{"dx":179,"dy":-114.5,"t":32809},{"dx":179,"dy":-114.5,"t":32889},{"dx":179,"dy":-114.5,"t":32962},{"dx":179,"dy":-114.5,"t":33036},{"dx":179,"dy":-114.5,"t":33120},{"dx":179,"dy":-114.5,"t":33194},{"dx":179,"dy":-114.5,"t":33275},{"dx":179,"dy":-114.5,"t":33354},{"dx":179,"dy":-114.5,"t":33430},{"dx":179,"dy":-114.5,"t":33514},{"dx":179,"dy":-114.5,"t":33592}],[{"dx":-181,"dy":-114.5,"t":34627},{"dx":-181,"dy":-114.5,"t":34708},{"dx":-181,"dy":-114.5,"t":34787},{"dx":-181,"dy":-114.5,"t":34863},{"dx":-181,"dy":-114.5,"t":34941},{"dx":-181,"dy":-114.5,"t":35022},{"dx":-181,"dy":-114.5,"t":35095},{"dx":-181,"dy":-114.5,"t":35171},{"dx":-181,"dy":-114.5,"t":35253},{"dx":-181,"dy":-114.5,"t":35328},{"dx":-181,"dy":-114.5,"t":35408},{"dx":-181,"dy":-114.5,"t":35488},{"dx":-181,"dy":-114.5,"t":35564},{"dx":-181,"dy":-114.5,"t":35647},{"dx":-181,"dy":-114.5,"t":35727},{"dx":-181,"dy":-114.5,"t":35805},{"dx":-181,"dy":-114.5,"t":35886},{"dx":-181,"dy":-114.5,"t":35965},{"dx":-181,"dy":-114.5,"t":36040},{"dx":-181,"dy":-114.5,"t":36119},{"dx":-181,"dy":-114.5,"t":36199},{"dx":-181,"dy":-114.5,"t":36282},{"dx":-181,"dy":-114.5,"t":36359},{"dx":-181,"dy":-114.5,"t":36441},{"dx":-181,"dy":-114.5,"t":36520},{"dx":-181,"dy":-114.5,"t":36596}],[{"dx":503,"dy":313,"t":37615},{"dx":503,"dy":313,"t":37688},{"dx":503,"dy":313,"t":37767},{"dx":503,"dy":313,"t":37846},{"dx":503,"dy":313,"t":37927},{"dx":503,"dy":313,"t":38006},{"dx":503,"dy":313,"t":38080},{"dx":503,"dy":313,"t":38162},{"dx":503,"dy":313,"t":38242},{"dx":503,"dy":313,"t":38318},{"dx":503,"dy":313,"t":38396},{"dx":503,"dy":313,"t":38479},{"dx":503,"dy":313,"t":38555},{"dx":503,"dy":313,"t":38640},{"dx":503,"dy":313,"t":38718},{"dx":503,"dy":313,"t":38797},{"dx":503,"dy":313,"t":38877},{"dx":503,"dy":313,"t":38957},{"dx":503,"dy":313,"t":39034},{"dx":503,"dy":313,"t":39116},{"dx":503,"dy":313,"t":39192},{"dx":503,"dy":313,"t":39269},{"dx":503,"dy":313,"t":39352},{"dx":503,"dy":313,"t":39426},{"dx":503,"dy":313,"t":39505},{"dx":503,"dy":313,"t":39587}]],"percent_in_roi":[0,0,0,100,0,0,0,0,0,0,0,0,0],"average_offset":[{"x":358.77777777777777,"y":222.96296296296296,"r":0.22528750112216267},{"x":359,"y":-227,"r":0},{"x":179,"y":110.5,"r":0},{"x":-1,"y":-2,"r":0},{"x":503,"y":-317,"r":0},{"x":-505,"y":-317,"r":0},{"x":-181,"y":110.5,"r":0},{"x":-361,"y":-227,"r":0},{"x":-361,"y":223,"r":0},{"x":-505,"y":313,"r":0},{"x":179,"y":-114.5,"r":0},{"x":-181,"y":-114.5,"r":0},{"x":503,"y":313,"r":0}],"samples_per_sec":"12.72","clicks":25,"pattern":"spread","trial_type":"webgazer-validate","trial_index":25,"time_elapsed":294587,"internal_node_id":"0.0-10.0-3.2","validation_points":[[25,25],[25,75],[37.5,37.5],[50,50],[15,85],[85,85],[62.5,37.5],[75,75],[75,25],[85,15],[37.5,62.5],[62.5,62.5],[15,15]],"user_agent":"Mozilla/5.0 (Macintosh; Intel Mac OS X 10_15_6) AppleWebKit/605.1.15 (KHTML, like Gecko) Version/13.1.2 Safari/605.1.15","screen_width_px":1440,"screen_height_px":900},{"rt":2553,"stimulus":"\n      <p>Round complete.</p>\n      <p>You can move a little bit, but please try to return you head to the same general location before continuing.</p>\n    ","response":0,"trial_type":"html-button-response","trial_index":26,"time_elapsed":297143,"internal_node_id":"0.0-10.0-4.2","user_agent":"Mozilla/5.0 (Macintosh; Intel Mac OS X 10_15_6) AppleWebKit/605.1.15 (KHTML, like Gecko) Version/13.1.2 Safari/605.1.15","screen_width_px":1440,"screen_height_px":900},{"trial_type":"webgazer-init-camera","trial_index":27,"time_elapsed":305827,"internal_node_id":"0.0-10.0-5.2","user_agent":"Mozilla/5.0 (Macintosh; Intel Mac OS X 10_15_6) AppleWebKit/605.1.15 (KHTML, like Gecko) Version/13.1.2 Safari/605.1.15","screen_width_px":1440,"screen_height_px":900},{"rt":896,"stimulus":"\n      <p>Calibration phase next.</p>\n      <p>Click on the dots.</p>\n    ","response":0,"trial_type":"html-button-response","trial_index":28,"time_elapsed":306728,"internal_node_id":"0.0-10.0-0.3","user_agent":"Mozilla/5.0 (Macintosh; Intel Mac OS X 10_15_6) AppleWebKit/605.1.15 (KHTML, like Gecko) Version/13.1.2 Safari/605.1.15","screen_width_px":1440,"screen_height_px":900},{"trial_type":"webgazer-calibrate","trial_index":29,"time_elapsed":328776,"internal_node_id":"0.0-10.0-1.3","user_agent":"Mozilla/5.0 (Macintosh; Intel Mac OS X 10_15_6) AppleWebKit/605.1.15 (KHTML, like Gecko) Version/13.1.2 Safari/605.1.15","screen_width_px":1440,"screen_height_px":900},{"rt":1539,"stimulus":"\n      <p>Validation phase next.</p>\n      <p>Look at the dots.</p>\n    ","response":0,"trial_type":"html-button-response","trial_index":30,"time_elapsed":330316,"internal_node_id":"0.0-10.0-2.3","user_agent":"Mozilla/5.0 (Macintosh; Intel Mac OS X 10_15_6) AppleWebKit/605.1.15 (KHTML, like Gecko) Version/13.1.2 Safari/605.1.15","screen_width_px":1440,"screen_height_px":900},{"raw_gaze":[[{"dx":-505,"dy":314,"t":1070},{"dx":-505,"dy":314,"t":1147},{"dx":-504,"dy":314,"t":1225},{"dx":-504,"dy":315,"t":1305},{"dx":-504,"dy":315,"t":1378},{"dx":-504,"dy":314,"t":1452},{"dx":-504,"dy":314,"t":1537},{"dx":-505,"dy":314,"t":1613},{"dx":-505,"dy":314,"t":1691},{"dx":-505,"dy":314,"t":1774},{"dx":-505,"dy":314,"t":1846},{"dx":-505,"dy":314,"t":1917},{"dx":-505,"dy":314,"t":1995},{"dx":-505,"dy":314,"t":2073},{"dx":-505,"dy":314,"t":2148},{"dx":-505,"dy":314,"t":2224},{"dx":-505,"dy":314,"t":2303},{"dx":-505,"dy":314,"t":2383},{"dx":-505,"dy":314,"t":2462},{"dx":-505,"dy":314,"t":2541},{"dx":-505,"dy":314,"t":2613},{"dx":-505,"dy":314,"t":2687},{"dx":-505,"dy":314,"t":2774},{"dx":-505,"dy":314,"t":2844},{"dx":-505,"dy":314,"t":2913},{"dx":-505,"dy":314,"t":2996},{"dx":-505,"dy":314,"t":3073}],[{"dx":-361,"dy":224,"t":4104},{"dx":-361,"dy":224,"t":4176},{"dx":-361,"dy":224,"t":4251},{"dx":-361,"dy":224,"t":4330},{"dx":-361,"dy":224,"t":4409},{"dx":-361,"dy":224,"t":4488},{"dx":-361,"dy":224,"t":4566},{"dx":-361,"dy":224,"t":4642},{"dx":-361,"dy":224,"t":4720},{"dx":-361,"dy":224,"t":4798},{"dx":-361,"dy":224,"t":4874},{"dx":-361,"dy":224,"t":4950},{"dx":-361,"dy":224,"t":5026},{"dx":-361,"dy":224,"t":5105},{"dx":-361,"dy":224,"t":5182},{"dx":-361,"dy":224,"t":5259},{"dx":-361,"dy":224,"t":5340},{"dx":-361,"dy":224,"t":5416},{"dx":-361,"dy":224,"t":5494},{"dx":-361,"dy":224,"t":5574},{"dx":-361,"dy":224,"t":5647},{"dx":-361,"dy":224,"t":5719},{"dx":-361,"dy":224,"t":5800},{"dx":-361,"dy":224,"t":5875},{"dx":-361,"dy":224,"t":5949},{"dx":-361,"dy":224,"t":6030},{"dx":-361,"dy":224,"t":6105}],[{"dx":-181,"dy":111.5,"t":7134},{"dx":-181,"dy":111.5,"t":7210},{"dx":-181,"dy":111.5,"t":7282},{"dx":-181,"dy":111.5,"t":7362},{"dx":-181,"dy":111.5,"t":7436},{"dx":-181,"dy":111.5,"t":7510},{"dx":-181,"dy":111.5,"t":7584},{"dx":-181,"dy":111.5,"t":7661},{"dx":-181,"dy":111.5,"t":7739},{"dx":-181,"dy":111.5,"t":7813},{"dx":-181,"dy":111.5,"t":7890},{"dx":-181,"dy":111.5,"t":7970},{"dx":-181,"dy":111.5,"t":8042},{"dx":-181,"dy":111.5,"t":8113},{"dx":-181,"dy":111.5,"t":8195},{"dx":-181,"dy":111.5,"t":8271},{"dx":-181,"dy":111.5,"t":8344},{"dx":-181,"dy":111.5,"t":8421},{"dx":-181,"dy":111.5,"t":8501},{"dx":-181,"dy":111.5,"t":8575},{"dx":-181,"dy":111.5,"t":8655},{"dx":-181,"dy":111.5,"t":8734},{"dx":-181,"dy":111.5,"t":8808},{"dx":-181,"dy":111.5,"t":8884},{"dx":-181,"dy":111.5,"t":8962},{"dx":-181,"dy":111.5,"t":9041},{"dx":-181,"dy":111.5,"t":9114}],[{"dx":-361,"dy":-226,"t":10134},{"dx":-361,"dy":-226,"t":10207},{"dx":-361,"dy":-226,"t":10278},{"dx":-361,"dy":-226,"t":10353},{"dx":-361,"dy":-226,"t":10434},{"dx":-361,"dy":-226,"t":10509},{"dx":-361,"dy":-226,"t":10583},{"dx":-361,"dy":-226,"t":10669},{"dx":-361,"dy":-226,"t":10741},{"dx":-361,"dy":-226,"t":10814},{"dx":-361,"dy":-226,"t":10895},{"dx":-361,"dy":-226,"t":10971},{"dx":-361,"dy":-226,"t":11042},{"dx":-361,"dy":-226,"t":11121},{"dx":-361,"dy":-226,"t":11200},{"dx":-361,"dy":-226,"t":11275},{"dx":-361,"dy":-226,"t":11345},{"dx":-361,"dy":-226,"t":11423},{"dx":-361,"dy":-226,"t":11504},{"dx":-361,"dy":-226,"t":11577},{"dx":-361,"dy":-226,"t":11654},{"dx":-361,"dy":-226,"t":11734},{"dx":-361,"dy":-226,"t":11804},{"dx":-361,"dy":-226,"t":11879},{"dx":-361,"dy":-226,"t":11962},{"dx":-361,"dy":-226,"t":12041},{"dx":-361,"dy":-226,"t":12127}],[{"dx":179,"dy":-113.5,"t":13124},{"dx":179,"dy":-113.5,"t":13201},{"dx":179,"dy":-113.5,"t":13277},{"dx":179,"dy":-113.5,"t":13354},{"dx":179,"dy":-113.5,"t":13433},{"dx":179,"dy":-113.5,"t":13508},{"dx":179,"dy":-113.5,"t":13582},{"dx":179,"dy":-113.5,"t":13665},{"dx":179,"dy":-113.5,"t":13739},{"dx":179,"dy":-113.5,"t":13815},{"dx":179,"dy":-113.5,"t":13895},{"dx":179,"dy":-113.5,"t":13973},{"dx":179,"dy":-113.5,"t":14045},{"dx":179,"dy":-113.5,"t":14125},{"dx":179,"dy":-113.5,"t":14203},{"dx":179,"dy":-113.5,"t":14278},{"dx":179,"dy":-113.5,"t":14363},{"dx":179,"dy":-113.5,"t":14436},{"dx":179,"dy":-113.5,"t":14509},{"dx":179,"dy":-113.5,"t":14587},{"dx":179,"dy":-113.5,"t":14664},{"dx":179,"dy":-113.5,"t":14738},{"dx":179,"dy":-113.5,"t":14811},{"dx":179,"dy":-113.5,"t":14889},{"dx":179,"dy":-113.5,"t":14969},{"dx":179,"dy":-113.5,"t":15045},{"dx":179,"dy":-113.5,"t":15119}],[{"dx":-181,"dy":-113.5,"t":16146},{"dx":-181,"dy":-113.5,"t":16221},{"dx":-181,"dy":-113.5,"t":16303},{"dx":-181,"dy":-113.5,"t":16380},{"dx":-181,"dy":-113.5,"t":16465},{"dx":-181,"dy":-113.5,"t":16539},{"dx":-181,"dy":-113.5,"t":16614},{"dx":-181,"dy":-113.5,"t":16701},{"dx":-181,"dy":-113.5,"t":16774},{"dx":-181,"dy":-113.5,"t":16850},{"dx":-181,"dy":-113.5,"t":16935},{"dx":-181,"dy":-113.5,"t":17010},{"dx":-181,"dy":-113.5,"t":17087},{"dx":-181,"dy":-113.5,"t":17169},{"dx":-181,"dy":-113.5,"t":17242},{"dx":-181,"dy":-113.5,"t":17317},{"dx":-181,"dy":-113.5,"t":17400},{"dx":-181,"dy":-113.5,"t":17474},{"dx":-181,"dy":-113.5,"t":17552},{"dx":-181,"dy":-113.5,"t":17632},{"dx":-181,"dy":-113.5,"t":17709},{"dx":-181,"dy":-113.5,"t":17785},{"dx":-181,"dy":-113.5,"t":17866},{"dx":-181,"dy":-113.5,"t":17943},{"dx":-181,"dy":-113.5,"t":18020},{"dx":-181,"dy":-113.5,"t":18101},{"dx":-181,"dy":-113.5,"t":18175}],[{"dx":503,"dy":-316,"t":19211},{"dx":503,"dy":-316,"t":19293},{"dx":503,"dy":-316,"t":19374},{"dx":503,"dy":-316,"t":19451},{"dx":503,"dy":-316,"t":19533},{"dx":503,"dy":-316,"t":19610},{"dx":503,"dy":-316,"t":19683},{"dx":503,"dy":-316,"t":19766},{"dx":503,"dy":-316,"t":19844},{"dx":503,"dy":-316,"t":19924},{"dx":503,"dy":-316,"t":19999},{"dx":503,"dy":-316,"t":20076},{"dx":503,"dy":-316,"t":20155},{"dx":503,"dy":-316,"t":20233},{"dx":503,"dy":-316,"t":20307},{"dx":503,"dy":-316,"t":20393},{"dx":503,"dy":-316,"t":20468},{"dx":503,"dy":-316,"t":20543},{"dx":503,"dy":-316,"t":20617},{"dx":503,"dy":-316,"t":20695},{"dx":503,"dy":-316,"t":20770},{"dx":503,"dy":-316,"t":20847},{"dx":503,"dy":-316,"t":20930},{"dx":503,"dy":-316,"t":21004},{"dx":503,"dy":-316,"t":21077},{"dx":503,"dy":-316,"t":21156},{"dx":503,"dy":-316,"t":21236}],[{"dx":359,"dy":224,"t":22273},{"dx":359,"dy":224,"t":22351},{"dx":359,"dy":224,"t":22432},{"dx":359,"dy":224,"t":22506},{"dx":359,"dy":224,"t":22584},{"dx":359,"dy":224,"t":22665},{"dx":359,"dy":224,"t":22737},{"dx":359,"dy":224,"t":22813},{"dx":359,"dy":224,"t":22897},{"dx":359,"dy":224,"t":22969},{"dx":359,"dy":224,"t":23044},{"dx":359,"dy":224,"t":23125},{"dx":359,"dy":224,"t":23200},{"dx":359,"dy":224,"t":23280},{"dx":359,"dy":224,"t":23358},{"dx":359,"dy":224,"t":23433},{"dx":359,"dy":224,"t":23512},{"dx":359,"dy":224,"t":23590},{"dx":359,"dy":224,"t":23666},{"dx":359,"dy":224,"t":23741},{"dx":359,"dy":224,"t":23826},{"dx":359,"dy":224,"t":23901},{"dx":359,"dy":224,"t":23974},{"dx":359,"dy":224,"t":24053},{"dx":359,"dy":224,"t":24135},{"dx":359,"dy":224,"t":24209},{"dx":359,"dy":224,"t":24286}],[{"dx":179,"dy":111.5,"t":25315},{"dx":179,"dy":111.5,"t":25395},{"dx":179,"dy":111.5,"t":25471},{"dx":179,"dy":111.5,"t":25545},{"dx":179,"dy":111.5,"t":25627},{"dx":179,"dy":111.5,"t":25706},{"dx":179,"dy":111.5,"t":25782},{"dx":179,"dy":111.5,"t":25860},{"dx":179,"dy":111.5,"t":25938},{"dx":179,"dy":111.5,"t":26014},{"dx":179,"dy":111.5,"t":26096},{"dx":179,"dy":111.5,"t":26168},{"dx":179,"dy":111.5,"t":26244},{"dx":179,"dy":111.5,"t":26327},{"dx":179,"dy":111.5,"t":26400},{"dx":179,"dy":111.5,"t":26474},{"dx":179,"dy":111.5,"t":26551},{"dx":179,"dy":111.5,"t":26631},{"dx":179,"dy":111.5,"t":26700},{"dx":179,"dy":111.5,"t":26780},{"dx":179,"dy":111.5,"t":26856},{"dx":179,"dy":111.5,"t":26931},{"dx":179,"dy":111.5,"t":27012},{"dx":179,"dy":111.5,"t":27085},{"dx":179,"dy":111.5,"t":27161},{"dx":179,"dy":111.5,"t":27234},{"dx":179,"dy":111.5,"t":27308}],[{"dx":-505,"dy":-316,"t":28338},{"dx":-505,"dy":-316,"t":28416},{"dx":-505,"dy":-316,"t":28496},{"dx":-505,"dy":-316,"t":28574},{"dx":-505,"dy":-316,"t":28651},{"dx":-505,"dy":-316,"t":28728},{"dx":-505,"dy":-316,"t":28804},{"dx":-505,"dy":-316,"t":28880},{"dx":-505,"dy":-316,"t":28961},{"dx":-505,"dy":-316,"t":29034},{"dx":-505,"dy":-316,"t":29111},{"dx":-505,"dy":-316,"t":29195},{"dx":-505,"dy":-316,"t":29269},{"dx":-505,"dy":-316,"t":29343},{"dx":-505,"dy":-316,"t":29427},{"dx":-505,"dy":-316,"t":29499},{"dx":-505,"dy":-316,"t":29573},{"dx":-505,"dy":-316,"t":29650},{"dx":-505,"dy":-316,"t":29725},{"dx":-505,"dy":-316,"t":29800},{"dx":-505,"dy":-316,"t":29876},{"dx":-505,"dy":-316,"t":29958},{"dx":-505,"dy":-316,"t":30032},{"dx":-505,"dy":-316,"t":30110},{"dx":-505,"dy":-316,"t":30191},{"dx":-505,"dy":-316,"t":30265},{"dx":-505,"dy":-316,"t":30342}],[{"dx":359,"dy":-226,"t":31369},{"dx":359,"dy":-226,"t":31450},{"dx":359,"dy":-226,"t":31530},{"dx":359,"dy":-226,"t":31604},{"dx":359,"dy":-226,"t":31679},{"dx":359,"dy":-226,"t":31761},{"dx":359,"dy":-226,"t":31834},{"dx":359,"dy":-226,"t":31909},{"dx":359,"dy":-226,"t":31991},{"dx":359,"dy":-226,"t":32065},{"dx":359,"dy":-226,"t":32140},{"dx":359,"dy":-226,"t":32225},{"dx":359,"dy":-226,"t":32299},{"dx":359,"dy":-226,"t":32387},{"dx":359,"dy":-226,"t":32467},{"dx":359,"dy":-226,"t":32546},{"dx":359,"dy":-226,"t":32627},{"dx":359,"dy":-226,"t":32708},{"dx":359,"dy":-226,"t":32786},{"dx":359,"dy":-226,"t":32865},{"dx":359,"dy":-226,"t":32938},{"dx":359,"dy":-226,"t":33015},{"dx":359,"dy":-226,"t":33100},{"dx":359,"dy":-226,"t":33178},{"dx":359,"dy":-226,"t":33258},{"dx":359,"dy":-226,"t":33337}],[{"dx":-1,"dy":-1,"t":34369},{"dx":-1,"dy":-1,"t":34443},{"dx":-1,"dy":-1,"t":34524},{"dx":-1,"dy":-1,"t":34597},{"dx":-1,"dy":-1,"t":34671},{"dx":-1,"dy":-1,"t":34751},{"dx":-1,"dy":-1,"t":34828},{"dx":-1,"dy":-1,"t":34906},{"dx":-1,"dy":-1,"t":34990},{"dx":-1,"dy":-1,"t":35066},{"dx":-1,"dy":-1,"t":35140},{"dx":-1,"dy":-1,"t":35219},{"dx":-1,"dy":-1,"t":35298},{"dx":-1,"dy":-1,"t":35372},{"dx":-1,"dy":-1,"t":35453},{"dx":-1,"dy":-1,"t":35531},{"dx":-1,"dy":-1,"t":35604},{"dx":-1,"dy":-1,"t":35681},{"dx":-1,"dy":-1,"t":35761},{"dx":-1,"dy":-1,"t":35833},{"dx":-1,"dy":-1,"t":35908},{"dx":-1,"dy":-1,"t":35988},{"dx":-1,"dy":-1,"t":36066},{"dx":-1,"dy":-1,"t":36138},{"dx":-1,"dy":-1,"t":36225},{"dx":-1,"dy":-1,"t":36298},{"dx":-1,"dy":-1,"t":36378}],[{"dx":503,"dy":314,"t":37379},{"dx":503,"dy":314,"t":37461},{"dx":503,"dy":314,"t":37540},{"dx":503,"dy":314,"t":37623},{"dx":503,"dy":314,"t":37699},{"dx":503,"dy":314,"t":37775},{"dx":503,"dy":314,"t":37854},{"dx":503,"dy":314,"t":37934},{"dx":503,"dy":314,"t":38013},{"dx":503,"dy":314,"t":38096},{"dx":503,"dy":314,"t":38170},{"dx":503,"dy":314,"t":38250},{"dx":503,"dy":314,"t":38330},{"dx":503,"dy":314,"t":38407},{"dx":503,"dy":314,"t":38489},{"dx":503,"dy":314,"t":38567},{"dx":503,"dy":314,"t":38647},{"dx":503,"dy":314,"t":38727},{"dx":503,"dy":314,"t":38806},{"dx":503,"dy":314,"t":38880},{"dx":503,"dy":314,"t":38959},{"dx":503,"dy":314,"t":39037},{"dx":503,"dy":314,"t":39118},{"dx":503,"dy":314,"t":39194},{"dx":503,"dy":314,"t":39271},{"dx":503,"dy":314,"t":39350}]],"percent_in_roi":[0,0,0,0,0,0,0,0,0,0,0,100,0],"average_offset":[{"x":-504.81481481481484,"y":314.0740740740741,"r":0.1994505484123683},{"x":-361,"y":224,"r":0},{"x":-181,"y":111.5,"r":0},{"x":-361,"y":-226,"r":0},{"x":179,"y":-113.5,"r":0},{"x":-181,"y":-113.5,"r":0},{"x":503,"y":-316,"r":0},{"x":359,"y":224,"r":0},{"x":179,"y":111.5,"r":0},{"x":-505,"y":-316,"r":0},{"x":359,"y":-226,"r":0},{"x":-1,"y":-1,"r":0},{"x":503,"y":314,"r":0}],"samples_per_sec":"12.93","clicks":15,"pattern":"spread","trial_type":"webgazer-validate","trial_index":31,"time_elapsed":370710,"internal_node_id":"0.0-10.0-3.3","validation_points":[[85,15],[75,25],[62.5,37.5],[75,75],[37.5,62.5],[62.5,62.5],[15,85],[25,25],[37.5,37.5],[85,85],[25,75],[50,50],[15,15]],"user_agent":"Mozilla/5.0 (Macintosh; Intel Mac OS X 10_15_6) AppleWebKit/605.1.15 (KHTML, like Gecko) Version/13.1.2 Safari/605.1.15","screen_width_px":1440,"screen_height_px":900},{"rt":4653,"stimulus":"\n      <p>Round complete.</p>\n      <p>You can move a little bit, but please try to return you head to the same general location before continuing.</p>\n    ","response":0,"trial_type":"html-button-response","trial_index":32,"time_elapsed":375365,"internal_node_id":"0.0-10.0-4.3","user_agent":"Mozilla/5.0 (Macintosh; Intel Mac OS X 10_15_6) AppleWebKit/605.1.15 (KHTML, like Gecko) Version/13.1.2 Safari/605.1.15","screen_width_px":1440,"screen_height_px":900},{"trial_type":"webgazer-init-camera","trial_index":33,"time_elapsed":377537,"internal_node_id":"0.0-10.0-5.3","user_agent":"Mozilla/5.0 (Macintosh; Intel Mac OS X 10_15_6) AppleWebKit/605.1.15 (KHTML, like Gecko) Version/13.1.2 Safari/605.1.15","screen_width_px":1440,"screen_height_px":900},{"rt":1025,"stimulus":"\n      <p>Calibration phase next.</p>\n      <p>Click on the dots.</p>\n    ","response":0,"trial_type":"html-button-response","trial_index":34,"time_elapsed":378567,"internal_node_id":"0.0-10.0-0.4","user_agent":"Mozilla/5.0 (Macintosh; Intel Mac OS X 10_15_6) AppleWebKit/605.1.15 (KHTML, like Gecko) Version/13.1.2 Safari/605.1.15","screen_width_px":1440,"screen_height_px":900},{"trial_type":"webgazer-calibrate","trial_index":35,"time_elapsed":386523,"internal_node_id":"0.0-10.0-1.4","user_agent":"Mozilla/5.0 (Macintosh; Intel Mac OS X 10_15_6) AppleWebKit/605.1.15 (KHTML, like Gecko) Version/13.1.2 Safari/605.1.15","screen_width_px":1440,"screen_height_px":900},{"rt":1048,"stimulus":"\n      <p>Validation phase next.</p>\n      <p>Look at the dots.</p>\n    ","response":0,"trial_type":"html-button-response","trial_index":36,"time_elapsed":387573,"internal_node_id":"0.0-10.0-2.4","user_agent":"Mozilla/5.0 (Macintosh; Intel Mac OS X 10_15_6) AppleWebKit/605.1.15 (KHTML, like Gecko) Version/13.1.2 Safari/605.1.15","screen_width_px":1440,"screen_height_px":900},{"raw_gaze":[[{"dx":-364,"dy":224,"t":1077},{"dx":-363,"dy":223,"t":1157},{"dx":-362,"dy":223,"t":1232},{"dx":-362,"dy":223,"t":1303},{"dx":-362,"dy":223,"t":1384},{"dx":-362,"dy":223,"t":1461},{"dx":-362,"dy":223,"t":1533},{"dx":-363,"dy":223,"t":1610},{"dx":-363,"dy":223,"t":1692},{"dx":-363,"dy":223,"t":1765},{"dx":-363,"dy":223,"t":1841},{"dx":-363,"dy":223,"t":1926},{"dx":-363,"dy":223,"t":1998},{"dx":-363,"dy":223,"t":2072},{"dx":-363,"dy":223,"t":2155},{"dx":-363,"dy":223,"t":2226},{"dx":-363,"dy":223,"t":2301},{"dx":-363,"dy":223,"t":2382},{"dx":-363,"dy":223,"t":2466},{"dx":-363,"dy":223,"t":2543},{"dx":-363,"dy":223,"t":2626},{"dx":-363,"dy":223,"t":2703},{"dx":-363,"dy":223,"t":2778},{"dx":-363,"dy":223,"t":2858},{"dx":-363,"dy":223,"t":2937},{"dx":-363,"dy":223,"t":3016},{"dx":-363,"dy":223,"t":3093}],[{"dx":-507,"dy":313,"t":4116},{"dx":-507,"dy":313,"t":4192},{"dx":-507,"dy":313,"t":4265},{"dx":-507,"dy":313,"t":4338},{"dx":-507,"dy":313,"t":4420},{"dx":-507,"dy":313,"t":4495},{"dx":-507,"dy":313,"t":4564},{"dx":-507,"dy":313,"t":4637},{"dx":-507,"dy":313,"t":4721},{"dx":-507,"dy":313,"t":4793},{"dx":-507,"dy":313,"t":4865},{"dx":-507,"dy":313,"t":4946},{"dx":-507,"dy":313,"t":5021},{"dx":-507,"dy":313,"t":5093},{"dx":-507,"dy":313,"t":5166},{"dx":-507,"dy":313,"t":5247},{"dx":-507,"dy":313,"t":5325},{"dx":-507,"dy":313,"t":5400},{"dx":-507,"dy":313,"t":5476},{"dx":-507,"dy":313,"t":5558},{"dx":-507,"dy":313,"t":5629},{"dx":-507,"dy":313,"t":5703},{"dx":-507,"dy":313,"t":5783},{"dx":-507,"dy":313,"t":5856},{"dx":-507,"dy":313,"t":5929},{"dx":-507,"dy":313,"t":6005},{"dx":-507,"dy":313,"t":6086},{"dx":-507,"dy":313,"t":6158}],[{"dx":357,"dy":-227,"t":7164},{"dx":357,"dy":-227,"t":7242},{"dx":357,"dy":-227,"t":7320},{"dx":357,"dy":-227,"t":7397},{"dx":357,"dy":-227,"t":7468},{"dx":357,"dy":-227,"t":7550},{"dx":357,"dy":-227,"t":7627},{"dx":357,"dy":-227,"t":7699},{"dx":357,"dy":-227,"t":7774},{"dx":357,"dy":-227,"t":7855},{"dx":357,"dy":-227,"t":7927},{"dx":357,"dy":-227,"t":8002},{"dx":357,"dy":-227,"t":8087},{"dx":357,"dy":-227,"t":8157},{"dx":357,"dy":-227,"t":8229},{"dx":357,"dy":-227,"t":8307},{"dx":357,"dy":-227,"t":8387},{"dx":357,"dy":-227,"t":8458},{"dx":357,"dy":-227,"t":8533},{"dx":357,"dy":-227,"t":8609},{"dx":357,"dy":-227,"t":8690},{"dx":357,"dy":-227,"t":8762},{"dx":357,"dy":-227,"t":8836},{"dx":357,"dy":-227,"t":8920},{"dx":357,"dy":-227,"t":8991},{"dx":357,"dy":-227,"t":9065},{"dx":357,"dy":-227,"t":9143},{"dx":357,"dy":-227,"t":9219}],[{"dx":-3,"dy":-2,"t":10227},{"dx":-3,"dy":-2,"t":10304},{"dx":-3,"dy":-2,"t":10379},{"dx":-3,"dy":-2,"t":10455},{"dx":-3,"dy":-2,"t":10603},{"dx":-3,"dy":-2,"t":10671},{"dx":-3,"dy":-2,"t":10740},{"dx":-3,"dy":-2,"t":10821},{"dx":-3,"dy":-2,"t":10892},{"dx":-3,"dy":-2,"t":10963},{"dx":-3,"dy":-2,"t":11040},{"dx":-3,"dy":-2,"t":11118},{"dx":-3,"dy":-2,"t":11192},{"dx":-3,"dy":-2,"t":11268},{"dx":-3,"dy":-2,"t":11349},{"dx":-3,"dy":-2,"t":11428},{"dx":-3,"dy":-2,"t":11504},{"dx":-3,"dy":-2,"t":11588},{"dx":-3,"dy":-2,"t":11657},{"dx":-3,"dy":-2,"t":11729},{"dx":-3,"dy":-2,"t":11808},{"dx":-3,"dy":-2,"t":11886},{"dx":-3,"dy":-2,"t":11958},{"dx":-3,"dy":-2,"t":12031},{"dx":-3,"dy":-2,"t":12116},{"dx":-3,"dy":-2,"t":12188},{"dx":-3,"dy":-2,"t":12262}],[{"dx":177,"dy":110.5,"t":13291},{"dx":177,"dy":110.5,"t":13364},{"dx":177,"dy":110.5,"t":13440},{"dx":177,"dy":110.5,"t":13519},{"dx":177,"dy":110.5,"t":13590},{"dx":177,"dy":110.5,"t":13662},{"dx":177,"dy":110.5,"t":13743},{"dx":177,"dy":110.5,"t":13816},{"dx":177,"dy":110.5,"t":13891},{"dx":177,"dy":110.5,"t":13967},{"dx":177,"dy":110.5,"t":14048},{"dx":177,"dy":110.5,"t":14121},{"dx":177,"dy":110.5,"t":14195},{"dx":177,"dy":110.5,"t":14274},{"dx":177,"dy":110.5,"t":14355},{"dx":177,"dy":110.5,"t":14429},{"dx":177,"dy":110.5,"t":14506},{"dx":177,"dy":110.5,"t":14589},{"dx":177,"dy":110.5,"t":14661},{"dx":177,"dy":110.5,"t":14738},{"dx":177,"dy":110.5,"t":14820},{"dx":177,"dy":110.5,"t":14892},{"dx":177,"dy":110.5,"t":14964},{"dx":177,"dy":110.5,"t":15045},{"dx":177,"dy":110.5,"t":15121},{"dx":177,"dy":110.5,"t":15195},{"dx":177,"dy":110.5,"t":15277}],[{"dx":-363,"dy":-227,"t":16295},{"dx":-363,"dy":-227,"t":16374},{"dx":-363,"dy":-227,"t":16452},{"dx":-363,"dy":-227,"t":16524},{"dx":-363,"dy":-227,"t":16600},{"dx":-363,"dy":-227,"t":16678},{"dx":-363,"dy":-227,"t":16753},{"dx":-363,"dy":-227,"t":16833},{"dx":-363,"dy":-227,"t":16912},{"dx":-363,"dy":-227,"t":16985},{"dx":-363,"dy":-227,"t":17059},{"dx":-363,"dy":-227,"t":17132},{"dx":-363,"dy":-227,"t":17213},{"dx":-363,"dy":-227,"t":17287},{"dx":-363,"dy":-227,"t":17362},{"dx":-363,"dy":-227,"t":17438},{"dx":-363,"dy":-227,"t":17521},{"dx":-363,"dy":-227,"t":17595},{"dx":-363,"dy":-227,"t":17672},{"dx":-363,"dy":-227,"t":17754},{"dx":-363,"dy":-227,"t":17826},{"dx":-363,"dy":-227,"t":17900},{"dx":-363,"dy":-227,"t":17984},{"dx":-363,"dy":-227,"t":18057},{"dx":-363,"dy":-227,"t":18131},{"dx":-363,"dy":-227,"t":18214},{"dx":-363,"dy":-227,"t":18288}],[{"dx":-183,"dy":110.5,"t":19308},{"dx":-183,"dy":110.5,"t":19387},{"dx":-183,"dy":110.5,"t":19462},{"dx":-183,"dy":110.5,"t":19543},{"dx":-183,"dy":110.5,"t":19617},{"dx":-183,"dy":110.5,"t":19688},{"dx":-183,"dy":110.5,"t":19761},{"dx":-183,"dy":110.5,"t":19845},{"dx":-183,"dy":110.5,"t":19918},{"dx":-183,"dy":110.5,"t":19995},{"dx":-183,"dy":110.5,"t":20074},{"dx":-183,"dy":110.5,"t":20152},{"dx":-183,"dy":110.5,"t":20226},{"dx":-183,"dy":110.5,"t":20302},{"dx":-183,"dy":110.5,"t":20382},{"dx":-183,"dy":110.5,"t":20453},{"dx":-183,"dy":110.5,"t":20529},{"dx":-183,"dy":110.5,"t":20610},{"dx":-183,"dy":110.5,"t":20685},{"dx":-183,"dy":110.5,"t":20759},{"dx":-183,"dy":110.5,"t":20837},{"dx":-183,"dy":110.5,"t":20919},{"dx":-183,"dy":110.5,"t":20991},{"dx":-183,"dy":110.5,"t":21069},{"dx":-183,"dy":110.5,"t":21151},{"dx":-183,"dy":110.5,"t":21224},{"dx":-183,"dy":110.5,"t":21301}],[{"dx":501,"dy":313,"t":22323},{"dx":501,"dy":313,"t":22395},{"dx":501,"dy":313,"t":22481},{"dx":501,"dy":313,"t":22551},{"dx":501,"dy":313,"t":22623},{"dx":501,"dy":313,"t":22701},{"dx":501,"dy":313,"t":22782},{"dx":501,"dy":313,"t":22853},{"dx":501,"dy":313,"t":22929},{"dx":501,"dy":313,"t":23008},{"dx":501,"dy":313,"t":23085},{"dx":501,"dy":313,"t":23157},{"dx":501,"dy":313,"t":23234},{"dx":501,"dy":313,"t":23316},{"dx":501,"dy":313,"t":23388},{"dx":501,"dy":313,"t":23462},{"dx":501,"dy":313,"t":23543},{"dx":501,"dy":313,"t":23616},{"dx":501,"dy":313,"t":23688},{"dx":501,"dy":313,"t":23766},{"dx":501,"dy":313,"t":23847},{"dx":501,"dy":313,"t":23918},{"dx":501,"dy":313,"t":23998},{"dx":501,"dy":313,"t":24079},{"dx":501,"dy":313,"t":24152},{"dx":501,"dy":313,"t":24230},{"dx":501,"dy":313,"t":24308}],[{"dx":-507,"dy":-317,"t":25322},{"dx":-507,"dy":-317,"t":25403},{"dx":-507,"dy":-317,"t":25481},{"dx":-507,"dy":-317,"t":25553},{"dx":-507,"dy":-317,"t":25629},{"dx":-507,"dy":-317,"t":25707},{"dx":-507,"dy":-317,"t":25783},{"dx":-507,"dy":-317,"t":25858},{"dx":-507,"dy":-317,"t":25933},{"dx":-507,"dy":-317,"t":26013},{"dx":-507,"dy":-317,"t":26087},{"dx":-507,"dy":-317,"t":26163},{"dx":-507,"dy":-317,"t":26243},{"dx":-507,"dy":-317,"t":26315},{"dx":-507,"dy":-317,"t":26390},{"dx":-507,"dy":-317,"t":26466},{"dx":-507,"dy":-317,"t":26547},{"dx":-507,"dy":-317,"t":26622},{"dx":-507,"dy":-317,"t":26695},{"dx":-507,"dy":-317,"t":26776},{"dx":-507,"dy":-317,"t":26851},{"dx":-507,"dy":-317,"t":26927},{"dx":-507,"dy":-317,"t":27011},{"dx":-507,"dy":-317,"t":27090},{"dx":-507,"dy":-317,"t":27167},{"dx":-507,"dy":-317,"t":27244},{"dx":-507,"dy":-317,"t":27323}],[{"dx":-183,"dy":-114.5,"t":28346},{"dx":-183,"dy":-114.5,"t":28424},{"dx":-183,"dy":-114.5,"t":28503},{"dx":-183,"dy":-114.5,"t":28581},{"dx":-183,"dy":-114.5,"t":28658},{"dx":-183,"dy":-114.5,"t":28734},{"dx":-183,"dy":-114.5,"t":28811},{"dx":-183,"dy":-114.5,"t":28886},{"dx":-183,"dy":-114.5,"t":28959},{"dx":-183,"dy":-114.5,"t":29043},{"dx":-183,"dy":-114.5,"t":29119},{"dx":-183,"dy":-114.5,"t":29195},{"dx":-183,"dy":-114.5,"t":29278},{"dx":-183,"dy":-114.5,"t":29350},{"dx":-183,"dy":-114.5,"t":29424},{"dx":-183,"dy":-114.5,"t":29503},{"dx":-183,"dy":-114.5,"t":29581},{"dx":-183,"dy":-114.5,"t":29652},{"dx":-183,"dy":-114.5,"t":29727},{"dx":-183,"dy":-114.5,"t":29813},{"dx":-183,"dy":-114.5,"t":29886},{"dx":-183,"dy":-114.5,"t":29963},{"dx":-183,"dy":-114.5,"t":30046},{"dx":-183,"dy":-114.5,"t":30120},{"dx":-183,"dy":-114.5,"t":30200},{"dx":-183,"dy":-114.5,"t":30281},{"dx":-183,"dy":-114.5,"t":30355}],[{"dx":357,"dy":223,"t":31371},{"dx":357,"dy":223,"t":31446},{"dx":357,"dy":223,"t":31518},{"dx":357,"dy":223,"t":31601},{"dx":357,"dy":223,"t":31677},{"dx":357,"dy":223,"t":31751},{"dx":357,"dy":223,"t":31823},{"dx":357,"dy":223,"t":31901},{"dx":357,"dy":223,"t":31981},{"dx":357,"dy":223,"t":32053},{"dx":357,"dy":223,"t":32127},{"dx":357,"dy":223,"t":32210},{"dx":357,"dy":223,"t":32283},{"dx":357,"dy":223,"t":32356},{"dx":357,"dy":223,"t":32441},{"dx":357,"dy":223,"t":32514},{"dx":357,"dy":223,"t":32584},{"dx":357,"dy":223,"t":32653},{"dx":357,"dy":223,"t":32723},{"dx":357,"dy":223,"t":32795},{"dx":357,"dy":223,"t":32870},{"dx":357,"dy":223,"t":32944},{"dx":357,"dy":223,"t":33017},{"dx":357,"dy":223,"t":33095},{"dx":357,"dy":223,"t":33172},{"dx":357,"dy":223,"t":33246},{"dx":357,"dy":223,"t":33321},{"dx":357,"dy":223,"t":33398}],[{"dx":501,"dy":-317,"t":34412},{"dx":501,"dy":-317,"t":34484},{"dx":501,"dy":-317,"t":34562},{"dx":501,"dy":-317,"t":34641},{"dx":501,"dy":-317,"t":34714},{"dx":501,"dy":-317,"t":34793},{"dx":501,"dy":-317,"t":34873},{"dx":501,"dy":-317,"t":34947},{"dx":501,"dy":-317,"t":35026},{"dx":501,"dy":-317,"t":35109},{"dx":501,"dy":-317,"t":35183},{"dx":501,"dy":-317,"t":35264},{"dx":501,"dy":-317,"t":35342},{"dx":501,"dy":-317,"t":35414},{"dx":501,"dy":-317,"t":35485},{"dx":501,"dy":-317,"t":35562},{"dx":501,"dy":-317,"t":35640},{"dx":501,"dy":-317,"t":35719},{"dx":501,"dy":-317,"t":35793},{"dx":501,"dy":-317,"t":35862},{"dx":501,"dy":-317,"t":35934},{"dx":501,"dy":-317,"t":36003},{"dx":501,"dy":-317,"t":36069},{"dx":501,"dy":-317,"t":36142},{"dx":501,"dy":-317,"t":36218},{"dx":501,"dy":-317,"t":36291},{"dx":501,"dy":-317,"t":36374},{"dx":501,"dy":-317,"t":36448}],[{"dx":177,"dy":-114.5,"t":37450},{"dx":177,"dy":-114.5,"t":37530},{"dx":177,"dy":-114.5,"t":37610},{"dx":177,"dy":-114.5,"t":37686},{"dx":177,"dy":-114.5,"t":37763},{"dx":177,"dy":-114.5,"t":37842},{"dx":177,"dy":-114.5,"t":37914},{"dx":177,"dy":-114.5,"t":37992},{"dx":177,"dy":-114.5,"t":38072},{"dx":177,"dy":-114.5,"t":38145},{"dx":177,"dy":-114.5,"t":38221},{"dx":177,"dy":-114.5,"t":38300},{"dx":177,"dy":-114.5,"t":38377},{"dx":177,"dy":-114.5,"t":38457},{"dx":177,"dy":-114.5,"t":38538},{"dx":177,"dy":-114.5,"t":38611},{"dx":177,"dy":-114.5,"t":38686},{"dx":177,"dy":-114.5,"t":38754},{"dx":177,"dy":-114.5,"t":38824},{"dx":177,"dy":-114.5,"t":38892},{"dx":177,"dy":-114.5,"t":38964},{"dx":177,"dy":-114.5,"t":39042},{"dx":177,"dy":-114.5,"t":39116},{"dx":177,"dy":-114.5,"t":39189},{"dx":177,"dy":-114.5,"t":39268},{"dx":177,"dy":-114.5,"t":39345},{"dx":177,"dy":-114.5,"t":39417}]],"percent_in_roi":[0,0,0,100,0,0,0,0,0,0,0,0,0],"average_offset":[{"x":-362.85185185185185,"y":223.03703703703704,"r":0.1527076157636214},{"x":-507,"y":313,"r":0},{"x":357,"y":-227,"r":0},{"x":-3,"y":-2,"r":0},{"x":177,"y":110.5,"r":0},{"x":-363,"y":-227,"r":0},{"x":-183,"y":110.5,"r":0},{"x":501,"y":313,"r":0},{"x":-507,"y":-317,"r":0},{"x":-183,"y":-114.5,"r":0},{"x":357,"y":223,"r":0},{"x":501,"y":-317,"r":0},{"x":177,"y":-114.5,"r":0}],"samples_per_sec":"13.08","clicks":5,"pattern":"spread","trial_type":"webgazer-validate","trial_index":37,"time_elapsed":428032,"internal_node_id":"0.0-10.0-3.4","validation_points":[[75,25],[85,15],[25,75],[50,50],[37.5,37.5],[75,75],[62.5,37.5],[15,15],[85,85],[62.5,62.5],[25,25],[15,85],[37.5,62.5]],"user_agent":"Mozilla/5.0 (Macintosh; Intel Mac OS X 10_15_6) AppleWebKit/605.1.15 (KHTML, like Gecko) Version/13.1.2 Safari/605.1.15","screen_width_px":1440,"screen_height_px":900},{"rt":12201,"stimulus":"\n      <p>Round complete.</p>\n      <p>You can move a little bit, but please try to return you head to the same general location before continuing.</p>\n    ","response":0,"trial_type":"html-button-response","trial_index":38,"time_elapsed":440233,"internal_node_id":"0.0-10.0-4.4","user_agent":"Mozilla/5.0 (Macintosh; Intel Mac OS X 10_15_6) AppleWebKit/605.1.15 (KHTML, like Gecko) Version/13.1.2 Safari/605.1.15","screen_width_px":1440,"screen_height_px":900},{"trial_type":"webgazer-init-camera","trial_index":39,"time_elapsed":442429,"internal_node_id":"0.0-10.0-5.4","user_agent":"Mozilla/5.0 (Macintosh; Intel Mac OS X 10_15_6) AppleWebKit/605.1.15 (KHTML, like Gecko) Version/13.1.2 Safari/605.1.15","screen_width_px":1440,"screen_height_px":900},{"rt":871,"stimulus":"\n      <p>Calibration phase next.</p>\n      <p>Click on the dots.</p>\n    ","response":0,"trial_type":"html-button-response","trial_index":40,"time_elapsed":443305,"internal_node_id":"0.0-10.0-0.5","user_agent":"Mozilla/5.0 (Macintosh; Intel Mac OS X 10_15_6) AppleWebKit/605.1.15 (KHTML, like Gecko) Version/13.1.2 Safari/605.1.15","screen_width_px":1440,"screen_height_px":900},{"trial_type":"webgazer-calibrate","trial_index":41,"time_elapsed":469696,"internal_node_id":"0.0-10.0-1.5","user_agent":"Mozilla/5.0 (Macintosh; Intel Mac OS X 10_15_6) AppleWebKit/605.1.15 (KHTML, like Gecko) Version/13.1.2 Safari/605.1.15","screen_width_px":1440,"screen_height_px":900},{"rt":1203,"stimulus":"\n      <p>Validation phase next.</p>\n      <p>Look at the dots.</p>\n    ","response":0,"trial_type":"html-button-response","trial_index":42,"time_elapsed":470901,"internal_node_id":"0.0-10.0-2.5","user_agent":"Mozilla/5.0 (Macintosh; Intel Mac OS X 10_15_6) AppleWebKit/605.1.15 (KHTML, like Gecko) Version/13.1.2 Safari/605.1.15","screen_width_px":1440,"screen_height_px":900},{"raw_gaze":[[{"dx":502,"dy":-314,"t":1057},{"dx":503,"dy":-315,"t":1133},{"dx":504,"dy":-315,"t":1209},{"dx":504,"dy":-316,"t":1293},{"dx":504,"dy":-316,"t":1366},{"dx":504,"dy":-315,"t":1442},{"dx":504,"dy":-315,"t":1527},{"dx":503,"dy":-315,"t":1599},{"dx":503,"dy":-315,"t":1672},{"dx":503,"dy":-315,"t":1754},{"dx":503,"dy":-315,"t":1831},{"dx":503,"dy":-315,"t":1903},{"dx":503,"dy":-315,"t":1983},{"dx":503,"dy":-315,"t":2059},{"dx":503,"dy":-315,"t":2133},{"dx":503,"dy":-315,"t":2206},{"dx":503,"dy":-315,"t":2287},{"dx":503,"dy":-315,"t":2361},{"dx":503,"dy":-315,"t":2442},{"dx":503,"dy":-315,"t":2525},{"dx":503,"dy":-315,"t":2599},{"dx":503,"dy":-315,"t":2673},{"dx":503,"dy":-315,"t":2756},{"dx":503,"dy":-315,"t":2829},{"dx":503,"dy":-315,"t":2904},{"dx":503,"dy":-315,"t":2984},{"dx":503,"dy":-315,"t":3064}],[{"dx":-361,"dy":225,"t":4083},{"dx":-361,"dy":225,"t":4163},{"dx":-361,"dy":225,"t":4234},{"dx":-361,"dy":225,"t":4312},{"dx":-361,"dy":225,"t":4391},{"dx":-361,"dy":225,"t":4465},{"dx":-361,"dy":225,"t":4542},{"dx":-361,"dy":225,"t":4620},{"dx":-361,"dy":225,"t":4695},{"dx":-361,"dy":225,"t":4771},{"dx":-361,"dy":225,"t":4855},{"dx":-361,"dy":225,"t":4932},{"dx":-361,"dy":225,"t":5014},{"dx":-361,"dy":225,"t":5092},{"dx":-361,"dy":225,"t":5164},{"dx":-361,"dy":225,"t":5241},{"dx":-361,"dy":225,"t":5322},{"dx":-361,"dy":225,"t":5397},{"dx":-361,"dy":225,"t":5471},{"dx":-361,"dy":225,"t":5551},{"dx":-361,"dy":225,"t":5629},{"dx":-361,"dy":225,"t":5712},{"dx":-361,"dy":225,"t":5790},{"dx":-361,"dy":225,"t":5863},{"dx":-361,"dy":225,"t":5942},{"dx":-361,"dy":225,"t":6022},{"dx":-361,"dy":225,"t":6102}],[{"dx":179,"dy":112.5,"t":7122},{"dx":179,"dy":112.5,"t":7195},{"dx":179,"dy":112.5,"t":7268},{"dx":179,"dy":112.5,"t":7350},{"dx":179,"dy":112.5,"t":7431},{"dx":179,"dy":112.5,"t":7508},{"dx":179,"dy":112.5,"t":7589},{"dx":179,"dy":112.5,"t":7669},{"dx":179,"dy":112.5,"t":7747},{"dx":179,"dy":112.5,"t":7827},{"dx":179,"dy":112.5,"t":7907},{"dx":179,"dy":112.5,"t":7986},{"dx":179,"dy":112.5,"t":8063},{"dx":179,"dy":112.5,"t":8138},{"dx":179,"dy":112.5,"t":8210},{"dx":179,"dy":112.5,"t":8290},{"dx":179,"dy":112.5,"t":8361},{"dx":179,"dy":112.5,"t":8432},{"dx":179,"dy":112.5,"t":8516},{"dx":179,"dy":112.5,"t":8590},{"dx":179,"dy":112.5,"t":8661},{"dx":179,"dy":112.5,"t":8735},{"dx":179,"dy":112.5,"t":8808},{"dx":179,"dy":112.5,"t":8888},{"dx":179,"dy":112.5,"t":8964},{"dx":179,"dy":112.5,"t":9047},{"dx":179,"dy":112.5,"t":9125}],[{"dx":179,"dy":-112.5,"t":10127},{"dx":179,"dy":-112.5,"t":10211},{"dx":179,"dy":-112.5,"t":10290},{"dx":179,"dy":-112.5,"t":10362},{"dx":179,"dy":-112.5,"t":10436},{"dx":179,"dy":-112.5,"t":10519},{"dx":179,"dy":-112.5,"t":10593},{"dx":179,"dy":-112.5,"t":10669},{"dx":179,"dy":-112.5,"t":10742},{"dx":179,"dy":-112.5,"t":10822},{"dx":179,"dy":-112.5,"t":10896},{"dx":179,"dy":-112.5,"t":10974},{"dx":179,"dy":-112.5,"t":11056},{"dx":179,"dy":-112.5,"t":11134},{"dx":179,"dy":-112.5,"t":11214},{"dx":179,"dy":-112.5,"t":11291},{"dx":179,"dy":-112.5,"t":11364},{"dx":179,"dy":-112.5,"t":11442},{"dx":179,"dy":-112.5,"t":11524},{"dx":179,"dy":-112.5,"t":11598},{"dx":179,"dy":-112.5,"t":11676},{"dx":179,"dy":-112.5,"t":11758},{"dx":179,"dy":-112.5,"t":11832},{"dx":179,"dy":-112.5,"t":11909},{"dx":179,"dy":-112.5,"t":11991},{"dx":179,"dy":-112.5,"t":12063},{"dx":179,"dy":-112.5,"t":12137}],[{"dx":503,"dy":315,"t":13184},{"dx":503,"dy":315,"t":13258},{"dx":503,"dy":315,"t":13330},{"dx":503,"dy":315,"t":13409},{"dx":503,"dy":315,"t":13489},{"dx":503,"dy":315,"t":13562},{"dx":503,"dy":315,"t":13640},{"dx":503,"dy":315,"t":13719},{"dx":503,"dy":315,"t":13791},{"dx":503,"dy":315,"t":13869},{"dx":503,"dy":315,"t":13945},{"dx":503,"dy":315,"t":14024},{"dx":503,"dy":315,"t":14107},{"dx":503,"dy":315,"t":14186},{"dx":503,"dy":315,"t":14258},{"dx":503,"dy":315,"t":14333},{"dx":503,"dy":315,"t":14411},{"dx":503,"dy":315,"t":14490},{"dx":503,"dy":315,"t":14570},{"dx":503,"dy":315,"t":14651},{"dx":503,"dy":315,"t":14732},{"dx":503,"dy":315,"t":14810},{"dx":503,"dy":315,"t":14892},{"dx":503,"dy":315,"t":14964},{"dx":503,"dy":315,"t":15038},{"dx":503,"dy":315,"t":15122},{"dx":503,"dy":315,"t":15193}],[{"dx":-181,"dy":112.5,"t":16224},{"dx":-181,"dy":112.5,"t":16300},{"dx":-181,"dy":112.5,"t":16384},{"dx":-181,"dy":112.5,"t":16461},{"dx":-181,"dy":112.5,"t":16535},{"dx":-181,"dy":112.5,"t":16621},{"dx":-181,"dy":112.5,"t":16695},{"dx":-181,"dy":112.5,"t":16773},{"dx":-181,"dy":112.5,"t":16855},{"dx":-181,"dy":112.5,"t":16927},{"dx":-181,"dy":112.5,"t":17000},{"dx":-181,"dy":112.5,"t":17078},{"dx":-181,"dy":112.5,"t":17156},{"dx":-181,"dy":112.5,"t":17229},{"dx":-181,"dy":112.5,"t":17304},{"dx":-181,"dy":112.5,"t":17384},{"dx":-181,"dy":112.5,"t":17457},{"dx":-181,"dy":112.5,"t":17530},{"dx":-181,"dy":112.5,"t":17614},{"dx":-181,"dy":112.5,"t":17689},{"dx":-181,"dy":112.5,"t":17760},{"dx":-181,"dy":112.5,"t":17843},{"dx":-181,"dy":112.5,"t":17921},{"dx":-181,"dy":112.5,"t":18002},{"dx":-181,"dy":112.5,"t":18083},{"dx":-181,"dy":112.5,"t":18156},{"dx":-181,"dy":112.5,"t":18233}],[{"dx":-505,"dy":-315,"t":19254},{"dx":-505,"dy":-315,"t":19330},{"dx":-505,"dy":-315,"t":19406},{"dx":-505,"dy":-315,"t":19487},{"dx":-505,"dy":-315,"t":19567},{"dx":-505,"dy":-315,"t":19650},{"dx":-505,"dy":-315,"t":19724},{"dx":-505,"dy":-315,"t":19797},{"dx":-505,"dy":-315,"t":19883},{"dx":-505,"dy":-315,"t":19956},{"dx":-505,"dy":-315,"t":20033},{"dx":-505,"dy":-315,"t":20108},{"dx":-505,"dy":-315,"t":20187},{"dx":-505,"dy":-315,"t":20262},{"dx":-505,"dy":-315,"t":20340},{"dx":-505,"dy":-315,"t":20419},{"dx":-505,"dy":-315,"t":20493},{"dx":-505,"dy":-315,"t":20573},{"dx":-505,"dy":-315,"t":20654},{"dx":-505,"dy":-315,"t":20732},{"dx":-505,"dy":-315,"t":20815},{"dx":-505,"dy":-315,"t":20891},{"dx":-505,"dy":-315,"t":20967},{"dx":-505,"dy":-315,"t":21046},{"dx":-505,"dy":-315,"t":21124},{"dx":-505,"dy":-315,"t":21197},{"dx":-505,"dy":-315,"t":21267}],[{"dx":-361,"dy":-225,"t":22287},{"dx":-361,"dy":-225,"t":22359},{"dx":-361,"dy":-225,"t":22441},{"dx":-361,"dy":-225,"t":22518},{"dx":-361,"dy":-225,"t":22593},{"dx":-361,"dy":-225,"t":22676},{"dx":-361,"dy":-225,"t":22753},{"dx":-361,"dy":-225,"t":22828},{"dx":-361,"dy":-225,"t":22916},{"dx":-361,"dy":-225,"t":22988},{"dx":-361,"dy":-225,"t":23060},{"dx":-361,"dy":-225,"t":23138},{"dx":-361,"dy":-225,"t":23213},{"dx":-361,"dy":-225,"t":23286},{"dx":-361,"dy":-225,"t":23360},{"dx":-361,"dy":-225,"t":23434},{"dx":-361,"dy":-225,"t":23508},{"dx":-361,"dy":-225,"t":23587},{"dx":-361,"dy":-225,"t":23659},{"dx":-361,"dy":-225,"t":23740},{"dx":-361,"dy":-225,"t":23822},{"dx":-361,"dy":-225,"t":23893},{"dx":-361,"dy":-225,"t":23968},{"dx":-361,"dy":-225,"t":24050},{"dx":-361,"dy":-225,"t":24123},{"dx":-361,"dy":-225,"t":24195},{"dx":-361,"dy":-225,"t":24276}],[{"dx":-181,"dy":-112.5,"t":25702},{"dx":-181,"dy":-112.5,"t":25784},{"dx":-181,"dy":-112.5,"t":25861},{"dx":-181,"dy":-112.5,"t":25949},{"dx":-181,"dy":-112.5,"t":26033},{"dx":-181,"dy":-112.5,"t":26113},{"dx":-181,"dy":-112.5,"t":26193},{"dx":-181,"dy":-112.5,"t":26273},{"dx":-181,"dy":-112.5,"t":26349},{"dx":-181,"dy":-112.5,"t":26423},{"dx":-181,"dy":-112.5,"t":26497},{"dx":-181,"dy":-112.5,"t":26575},{"dx":-181,"dy":-112.5,"t":26651},{"dx":-181,"dy":-112.5,"t":26726},{"dx":-181,"dy":-112.5,"t":26802},{"dx":-181,"dy":-112.5,"t":26879},{"dx":-181,"dy":-112.5,"t":26961},{"dx":-181,"dy":-112.5,"t":27039},{"dx":-181,"dy":-112.5,"t":27119},{"dx":-181,"dy":-112.5,"t":27192},{"dx":-181,"dy":-112.5,"t":27275},{"dx":-181,"dy":-112.5,"t":27358}],[{"dx":359,"dy":-225,"t":28368},{"dx":359,"dy":-225,"t":28446},{"dx":359,"dy":-225,"t":28525},{"dx":359,"dy":-225,"t":28598},{"dx":359,"dy":-225,"t":28678},{"dx":359,"dy":-225,"t":28754},{"dx":359,"dy":-225,"t":28830},{"dx":359,"dy":-225,"t":28910},{"dx":359,"dy":-225,"t":28984},{"dx":359,"dy":-225,"t":29060},{"dx":359,"dy":-225,"t":29141},{"dx":359,"dy":-225,"t":29216},{"dx":359,"dy":-225,"t":29293},{"dx":359,"dy":-225,"t":29368},{"dx":359,"dy":-225,"t":29449},{"dx":359,"dy":-225,"t":29527},{"dx":359,"dy":-225,"t":29611},{"dx":359,"dy":-225,"t":29687},{"dx":359,"dy":-225,"t":29765},{"dx":359,"dy":-225,"t":29846},{"dx":359,"dy":-225,"t":29919},{"dx":359,"dy":-225,"t":29994},{"dx":359,"dy":-225,"t":30077},{"dx":359,"dy":-225,"t":30155},{"dx":359,"dy":-225,"t":30237},{"dx":359,"dy":-225,"t":30312},{"dx":359,"dy":-225,"t":30387}],[{"dx":359,"dy":225,"t":31399},{"dx":359,"dy":225,"t":31477},{"dx":359,"dy":225,"t":31555},{"dx":359,"dy":225,"t":31630},{"dx":359,"dy":225,"t":31710},{"dx":359,"dy":225,"t":31786},{"dx":359,"dy":225,"t":31855},{"dx":359,"dy":225,"t":31934},{"dx":359,"dy":225,"t":32010},{"dx":359,"dy":225,"t":32083},{"dx":359,"dy":225,"t":32157},{"dx":359,"dy":225,"t":32233},{"dx":359,"dy":225,"t":32313},{"dx":359,"dy":225,"t":32390},{"dx":359,"dy":225,"t":32466},{"dx":359,"dy":225,"t":32548},{"dx":359,"dy":225,"t":32619},{"dx":359,"dy":225,"t":32689},{"dx":359,"dy":225,"t":32760},{"dx":359,"dy":225,"t":32839},{"dx":359,"dy":225,"t":32915},{"dx":359,"dy":225,"t":32994},{"dx":359,"dy":225,"t":33079},{"dx":359,"dy":225,"t":33150},{"dx":359,"dy":225,"t":33224},{"dx":359,"dy":225,"t":33309},{"dx":359,"dy":225,"t":33383},{"dx":359,"dy":225,"t":33455}],[{"dx":-505,"dy":315,"t":34491},{"dx":-505,"dy":315,"t":34574},{"dx":-505,"dy":315,"t":34650},{"dx":-505,"dy":315,"t":34727},{"dx":-505,"dy":315,"t":34808},{"dx":-505,"dy":315,"t":34891},{"dx":-505,"dy":315,"t":34969},{"dx":-505,"dy":315,"t":35048},{"dx":-505,"dy":315,"t":35124},{"dx":-505,"dy":315,"t":35199},{"dx":-505,"dy":315,"t":35280},{"dx":-505,"dy":315,"t":35357},{"dx":-505,"dy":315,"t":35436},{"dx":-505,"dy":315,"t":35513},{"dx":-505,"dy":315,"t":35585},{"dx":-505,"dy":315,"t":35664},{"dx":-505,"dy":315,"t":35740},{"dx":-505,"dy":315,"t":35816},{"dx":-505,"dy":315,"t":35890},{"dx":-505,"dy":315,"t":35977},{"dx":-505,"dy":315,"t":36050},{"dx":-505,"dy":315,"t":36130},{"dx":-505,"dy":315,"t":36211},{"dx":-505,"dy":315,"t":36284},{"dx":-505,"dy":315,"t":36363},{"dx":-505,"dy":315,"t":36443},{"dx":-505,"dy":315,"t":36516}],[{"dx":-1,"dy":0,"t":37521},{"dx":-1,"dy":0,"t":37598},{"dx":-1,"dy":0,"t":37677},{"dx":-1,"dy":0,"t":37750},{"dx":-1,"dy":0,"t":37825},{"dx":-1,"dy":0,"t":37905},{"dx":-1,"dy":0,"t":37979},{"dx":-1,"dy":0,"t":38052},{"dx":-1,"dy":0,"t":38132},{"dx":-1,"dy":0,"t":38210},{"dx":-1,"dy":0,"t":38280},{"dx":-1,"dy":0,"t":38356},{"dx":-1,"dy":0,"t":38434},{"dx":-1,"dy":0,"t":38508},{"dx":-1,"dy":0,"t":38587},{"dx":-1,"dy":0,"t":38667},{"dx":-1,"dy":0,"t":38748},{"dx":-1,"dy":0,"t":38829},{"dx":-1,"dy":0,"t":38911},{"dx":-1,"dy":0,"t":38983},{"dx":-1,"dy":0,"t":39061},{"dx":-1,"dy":0,"t":39141},{"dx":-1,"dy":0,"t":39214},{"dx":-1,"dy":0,"t":39287},{"dx":-1,"dy":0,"t":39368},{"dx":-1,"dy":0,"t":39445}]],"percent_in_roi":[0,0,0,0,0,0,0,0,0,0,0,0,100],"average_offset":[{"x":503.14814814814815,"y":-315.037037037037,"r":0.1527076157636145},{"x":-361,"y":225,"r":0},{"x":179,"y":112.5,"r":0},{"x":179,"y":-112.5,"r":0},{"x":503,"y":315,"r":0},{"x":-181,"y":112.5,"r":0},{"x":-505,"y":-315,"r":0},{"x":-361,"y":-225,"r":0},{"x":-181,"y":-112.5,"r":0},{"x":359,"y":-225,"r":0},{"x":359,"y":225,"r":0},{"x":-505,"y":315,"r":0},{"x":-1,"y":0,"r":0}],"samples_per_sec":"12.93","clicks":15,"pattern":"spread","trial_type":"webgazer-validate","trial_index":43,"time_elapsed":511388,"internal_node_id":"0.0-10.0-3.5","validation_points":[[15,85],[75,25],[37.5,37.5],[37.5,62.5],[15,15],[62.5,37.5],[85,85],[75,75],[62.5,62.5],[25,75],[25,25],[85,15],[50,50]],"user_agent":"Mozilla/5.0 (Macintosh; Intel Mac OS X 10_15_6) AppleWebKit/605.1.15 (KHTML, like Gecko) Version/13.1.2 Safari/605.1.15","screen_width_px":1440,"screen_height_px":900},{"rt":1337.9999999999418,"stimulus":"\n      <p>Round complete.</p>\n      <p>You can move a little bit, but please try to return you head to the same general location before continuing.</p>\n    ","response":0,"trial_type":"html-button-response","trial_index":44,"time_elapsed":512728,"internal_node_id":"0.0-10.0-4.5","user_agent":"Mozilla/5.0 (Macintosh; Intel Mac OS X 10_15_6) AppleWebKit/605.1.15 (KHTML, like Gecko) Version/13.1.2 Safari/605.1.15","screen_width_px":1440,"screen_height_px":900},{"trial_type":"webgazer-init-camera","trial_index":45,"time_elapsed":515171,"internal_node_id":"0.0-10.0-5.5","user_agent":"Mozilla/5.0 (Macintosh; Intel Mac OS X 10_15_6) AppleWebKit/605.1.15 (KHTML, like Gecko) Version/13.1.2 Safari/605.1.15","screen_width_px":1440,"screen_height_px":900},{"rt":1010,"stimulus":"\n      <p>Calibration phase next.</p>\n      <p>Click on the dots.</p>\n    ","response":0,"trial_type":"html-button-response","trial_index":46,"time_elapsed":516183,"internal_node_id":"0.0-10.0-0.6","user_agent":"Mozilla/5.0 (Macintosh; Intel Mac OS X 10_15_6) AppleWebKit/605.1.15 (KHTML, like Gecko) Version/13.1.2 Safari/605.1.15","screen_width_px":1440,"screen_height_px":900},{"trial_type":"webgazer-calibrate","trial_index":47,"time_elapsed":556818,"internal_node_id":"0.0-10.0-1.6","user_agent":"Mozilla/5.0 (Macintosh; Intel Mac OS X 10_15_6) AppleWebKit/605.1.15 (KHTML, like Gecko) Version/13.1.2 Safari/605.1.15","screen_width_px":1440,"screen_height_px":900},{"rt":961,"stimulus":"\n      <p>Validation phase next.</p>\n      <p>Look at the dots.</p>\n    ","response":0,"trial_type":"html-button-response","trial_index":48,"time_elapsed":557784,"internal_node_id":"0.0-10.0-2.6","user_agent":"Mozilla/5.0 (Macintosh; Intel Mac OS X 10_15_6) AppleWebKit/605.1.15 (KHTML, like Gecko) Version/13.1.2 Safari/605.1.15","screen_width_px":1440,"screen_height_px":900},{"raw_gaze":[[{"dx":178,"dy":111.5,"t":1060},{"dx":179,"dy":111.5,"t":1143},{"dx":179,"dy":111.5,"t":1216},{"dx":179,"dy":111.5,"t":1293},{"dx":179,"dy":111.5,"t":1372},{"dx":179,"dy":111.5,"t":1451},{"dx":179,"dy":111.5,"t":1533},{"dx":178,"dy":111.5,"t":1608},{"dx":178,"dy":111.5,"t":1687},{"dx":178,"dy":111.5,"t":1768},{"dx":178,"dy":111.5,"t":1848},{"dx":178,"dy":111.5,"t":1927},{"dx":178,"dy":111.5,"t":2006},{"dx":178,"dy":111.5,"t":2086},{"dx":178,"dy":111.5,"t":2168},{"dx":178,"dy":111.5,"t":2241},{"dx":178,"dy":111.5,"t":2318},{"dx":178,"dy":111.5,"t":2398},{"dx":178,"dy":111.5,"t":2475},{"dx":178,"dy":111.5,"t":2550},{"dx":178,"dy":111.5,"t":2634},{"dx":178,"dy":111.5,"t":2708},{"dx":178,"dy":111.5,"t":2787},{"dx":178,"dy":111.5,"t":2865},{"dx":178,"dy":111.5,"t":2943},{"dx":178,"dy":111.5,"t":3020},{"dx":178,"dy":111.5,"t":3103}],[{"dx":-506,"dy":314,"t":4130},{"dx":-506,"dy":314,"t":4212},{"dx":-506,"dy":314,"t":4291},{"dx":-506,"dy":314,"t":4372},{"dx":-506,"dy":314,"t":4453},{"dx":-506,"dy":314,"t":4536},{"dx":-506,"dy":314,"t":4613},{"dx":-506,"dy":314,"t":4698},{"dx":-506,"dy":314,"t":4774},{"dx":-506,"dy":314,"t":4852},{"dx":-506,"dy":314,"t":4932},{"dx":-506,"dy":314,"t":5012},{"dx":-506,"dy":314,"t":5091},{"dx":-506,"dy":314,"t":5173},{"dx":-506,"dy":314,"t":5247},{"dx":-506,"dy":314,"t":5328},{"dx":-506,"dy":314,"t":5406},{"dx":-506,"dy":314,"t":5481},{"dx":-506,"dy":314,"t":5566},{"dx":-506,"dy":314,"t":5638},{"dx":-506,"dy":314,"t":5712},{"dx":-506,"dy":314,"t":5797},{"dx":-506,"dy":314,"t":5872},{"dx":-506,"dy":314,"t":5949},{"dx":-506,"dy":314,"t":6029},{"dx":-506,"dy":314,"t":6109}],[{"dx":-182,"dy":-113.5,"t":7110},{"dx":-182,"dy":-113.5,"t":7184},{"dx":-182,"dy":-113.5,"t":7266},{"dx":-182,"dy":-113.5,"t":7351},{"dx":-182,"dy":-113.5,"t":7433},{"dx":-182,"dy":-113.5,"t":7511},{"dx":-182,"dy":-113.5,"t":7588},{"dx":-182,"dy":-113.5,"t":7667},{"dx":-182,"dy":-113.5,"t":7742},{"dx":-182,"dy":-113.5,"t":7817},{"dx":-182,"dy":-113.5,"t":7901},{"dx":-182,"dy":-113.5,"t":7974},{"dx":-182,"dy":-113.5,"t":8053},{"dx":-182,"dy":-113.5,"t":8134},{"dx":-182,"dy":-113.5,"t":8209},{"dx":-182,"dy":-113.5,"t":8295},{"dx":-182,"dy":-113.5,"t":8371},{"dx":-182,"dy":-113.5,"t":8444},{"dx":-182,"dy":-113.5,"t":8525},{"dx":-182,"dy":-113.5,"t":8602},{"dx":-182,"dy":-113.5,"t":8677},{"dx":-182,"dy":-113.5,"t":8755},{"dx":-182,"dy":-113.5,"t":8837},{"dx":-182,"dy":-113.5,"t":8910},{"dx":-182,"dy":-113.5,"t":8985},{"dx":-182,"dy":-113.5,"t":9069},{"dx":-182,"dy":-113.5,"t":9141}],[{"dx":-182,"dy":111.5,"t":10167},{"dx":-182,"dy":111.5,"t":10239},{"dx":-182,"dy":111.5,"t":10313},{"dx":-182,"dy":111.5,"t":10395},{"dx":-182,"dy":111.5,"t":10472},{"dx":-182,"dy":111.5,"t":10549},{"dx":-182,"dy":111.5,"t":10634},{"dx":-182,"dy":111.5,"t":10706},{"dx":-182,"dy":111.5,"t":10784},{"dx":-182,"dy":111.5,"t":10863},{"dx":-182,"dy":111.5,"t":10939},{"dx":-182,"dy":111.5,"t":11018},{"dx":-182,"dy":111.5,"t":11096},{"dx":-182,"dy":111.5,"t":11171},{"dx":-182,"dy":111.5,"t":11253},{"dx":-182,"dy":111.5,"t":11332},{"dx":-182,"dy":111.5,"t":11407},{"dx":-182,"dy":111.5,"t":11485},{"dx":-182,"dy":111.5,"t":11565},{"dx":-182,"dy":111.5,"t":11635},{"dx":-182,"dy":111.5,"t":11711},{"dx":-182,"dy":111.5,"t":11797},{"dx":-182,"dy":111.5,"t":11873},{"dx":-182,"dy":111.5,"t":11951},{"dx":-182,"dy":111.5,"t":12035},{"dx":-182,"dy":111.5,"t":12105},{"dx":-182,"dy":111.5,"t":12182}],[{"dx":502,"dy":314,"t":13187},{"dx":502,"dy":314,"t":13263},{"dx":502,"dy":314,"t":13339},{"dx":502,"dy":314,"t":13415},{"dx":502,"dy":314,"t":13495},{"dx":502,"dy":314,"t":13571},{"dx":502,"dy":314,"t":13646},{"dx":502,"dy":314,"t":13729},{"dx":502,"dy":314,"t":13809},{"dx":502,"dy":314,"t":13889},{"dx":502,"dy":314,"t":13968},{"dx":502,"dy":314,"t":14043},{"dx":502,"dy":314,"t":14118},{"dx":502,"dy":314,"t":14197},{"dx":502,"dy":314,"t":14274},{"dx":502,"dy":314,"t":14353},{"dx":502,"dy":314,"t":14436},{"dx":502,"dy":314,"t":14515},{"dx":502,"dy":314,"t":14592},{"dx":502,"dy":314,"t":14668},{"dx":502,"dy":314,"t":14749},{"dx":502,"dy":314,"t":14828},{"dx":502,"dy":314,"t":14900},{"dx":502,"dy":314,"t":14974},{"dx":502,"dy":314,"t":15058},{"dx":502,"dy":314,"t":15134},{"dx":502,"dy":314,"t":15206}],[{"dx":-2,"dy":-1,"t":16244},{"dx":-2,"dy":-1,"t":16323},{"dx":-2,"dy":-1,"t":16401},{"dx":-2,"dy":-1,"t":16486},{"dx":-2,"dy":-1,"t":16567},{"dx":-2,"dy":-1,"t":16642},{"dx":-2,"dy":-1,"t":16722},{"dx":-2,"dy":-1,"t":16801},{"dx":-2,"dy":-1,"t":16880},{"dx":-2,"dy":-1,"t":16963},{"dx":-2,"dy":-1,"t":17047},{"dx":-2,"dy":-1,"t":17128},{"dx":-2,"dy":-1,"t":17209},{"dx":-2,"dy":-1,"t":17288},{"dx":-2,"dy":-1,"t":17368},{"dx":-2,"dy":-1,"t":17449},{"dx":-2,"dy":-1,"t":17528},{"dx":-2,"dy":-1,"t":17605},{"dx":-2,"dy":-1,"t":17678},{"dx":-2,"dy":-1,"t":17759},{"dx":-2,"dy":-1,"t":17838},{"dx":-2,"dy":-1,"t":17913},{"dx":-2,"dy":-1,"t":17995},{"dx":-2,"dy":-1,"t":18073},{"dx":-2,"dy":-1,"t":18154},{"dx":-2,"dy":-1,"t":18233}],[{"dx":178,"dy":-113.5,"t":19254},{"dx":178,"dy":-113.5,"t":19333},{"dx":178,"dy":-113.5,"t":19410},{"dx":178,"dy":-113.5,"t":19493},{"dx":178,"dy":-113.5,"t":19569},{"dx":178,"dy":-113.5,"t":19645},{"dx":178,"dy":-113.5,"t":19726},{"dx":178,"dy":-113.5,"t":19803},{"dx":178,"dy":-113.5,"t":19878},{"dx":178,"dy":-113.5,"t":19952},{"dx":178,"dy":-113.5,"t":20032},{"dx":178,"dy":-113.5,"t":20104},{"dx":178,"dy":-113.5,"t":20181},{"dx":178,"dy":-113.5,"t":20264},{"dx":178,"dy":-113.5,"t":20337},{"dx":178,"dy":-113.5,"t":20418},{"dx":178,"dy":-113.5,"t":20500},{"dx":178,"dy":-113.5,"t":20574},{"dx":178,"dy":-113.5,"t":20656},{"dx":178,"dy":-113.5,"t":20738},{"dx":178,"dy":-113.5,"t":20815},{"dx":178,"dy":-113.5,"t":20896},{"dx":178,"dy":-113.5,"t":20976},{"dx":178,"dy":-113.5,"t":21060},{"dx":178,"dy":-113.5,"t":21141},{"dx":178,"dy":-113.5,"t":21227},{"dx":178,"dy":-113.5,"t":21300}],[{"dx":502,"dy":-316,"t":22309},{"dx":502,"dy":-316,"t":22390},{"dx":502,"dy":-316,"t":22469},{"dx":502,"dy":-316,"t":22548},{"dx":502,"dy":-316,"t":22628},{"dx":502,"dy":-316,"t":22705},{"dx":502,"dy":-316,"t":22783},{"dx":502,"dy":-316,"t":22861},{"dx":502,"dy":-316,"t":22937},{"dx":502,"dy":-316,"t":23012},{"dx":502,"dy":-316,"t":23093},{"dx":502,"dy":-316,"t":23169},{"dx":502,"dy":-316,"t":23247},{"dx":502,"dy":-316,"t":23327},{"dx":502,"dy":-316,"t":23404},{"dx":502,"dy":-316,"t":23483},{"dx":502,"dy":-316,"t":23562},{"dx":502,"dy":-316,"t":23638},{"dx":502,"dy":-316,"t":23715},{"dx":502,"dy":-316,"t":23796},{"dx":502,"dy":-316,"t":23874},{"dx":502,"dy":-316,"t":23958},{"dx":502,"dy":-316,"t":24034},{"dx":502,"dy":-316,"t":24109},{"dx":502,"dy":-316,"t":24192},{"dx":502,"dy":-316,"t":24266},{"dx":502,"dy":-316,"t":24344}],[{"dx":358,"dy":-226,"t":25390},{"dx":358,"dy":-226,"t":25467},{"dx":358,"dy":-226,"t":25543},{"dx":358,"dy":-226,"t":25629},{"dx":358,"dy":-226,"t":25707},{"dx":358,"dy":-226,"t":25788},{"dx":358,"dy":-226,"t":25867},{"dx":358,"dy":-226,"t":25943},{"dx":358,"dy":-226,"t":26026},{"dx":358,"dy":-226,"t":26103},{"dx":358,"dy":-226,"t":26173},{"dx":358,"dy":-226,"t":26246},{"dx":358,"dy":-226,"t":26330},{"dx":358,"dy":-226,"t":26403},{"dx":358,"dy":-226,"t":26481},{"dx":358,"dy":-226,"t":26565},{"dx":358,"dy":-226,"t":26636},{"dx":358,"dy":-226,"t":26718},{"dx":358,"dy":-226,"t":26800},{"dx":358,"dy":-226,"t":26880},{"dx":358,"dy":-226,"t":26959},{"dx":358,"dy":-226,"t":27037},{"dx":358,"dy":-226,"t":27118},{"dx":358,"dy":-226,"t":27200},{"dx":358,"dy":-226,"t":27275},{"dx":358,"dy":-226,"t":27358}],[{"dx":-362,"dy":224,"t":28367},{"dx":-362,"dy":224,"t":28441},{"dx":-362,"dy":224,"t":28521},{"dx":-362,"dy":224,"t":28599},{"dx":-362,"dy":224,"t":28677},{"dx":-362,"dy":224,"t":28758},{"dx":-362,"dy":224,"t":28833},{"dx":-362,"dy":224,"t":28908},{"dx":-362,"dy":224,"t":28994},{"dx":-362,"dy":224,"t":29068},{"dx":-362,"dy":224,"t":29147},{"dx":-362,"dy":224,"t":29227},{"dx":-362,"dy":224,"t":29298},{"dx":-362,"dy":224,"t":29373},{"dx":-362,"dy":224,"t":29460},{"dx":-362,"dy":224,"t":29533},{"dx":-362,"dy":224,"t":29606},{"dx":-362,"dy":224,"t":29693},{"dx":-362,"dy":224,"t":29768},{"dx":-362,"dy":224,"t":29849},{"dx":-362,"dy":224,"t":29933},{"dx":-362,"dy":224,"t":30012},{"dx":-362,"dy":224,"t":30092},{"dx":-362,"dy":224,"t":30169},{"dx":-362,"dy":224,"t":30249},{"dx":-362,"dy":224,"t":30328},{"dx":-362,"dy":224,"t":30405}],[{"dx":-506,"dy":-316,"t":31425},{"dx":-506,"dy":-316,"t":31503},{"dx":-506,"dy":-316,"t":31588},{"dx":-506,"dy":-316,"t":31663},{"dx":-506,"dy":-316,"t":31736},{"dx":-506,"dy":-316,"t":31821},{"dx":-506,"dy":-316,"t":31897},{"dx":-506,"dy":-316,"t":31968},{"dx":-506,"dy":-316,"t":32044},{"dx":-506,"dy":-316,"t":32124},{"dx":-506,"dy":-316,"t":32197},{"dx":-506,"dy":-316,"t":32273},{"dx":-506,"dy":-316,"t":32355},{"dx":-506,"dy":-316,"t":32429},{"dx":-506,"dy":-316,"t":32506},{"dx":-506,"dy":-316,"t":32589},{"dx":-506,"dy":-316,"t":32666},{"dx":-506,"dy":-316,"t":32750},{"dx":-506,"dy":-316,"t":32828},{"dx":-506,"dy":-316,"t":32903},{"dx":-506,"dy":-316,"t":32981},{"dx":-506,"dy":-316,"t":33059},{"dx":-506,"dy":-316,"t":33130},{"dx":-506,"dy":-316,"t":33206},{"dx":-506,"dy":-316,"t":33288},{"dx":-506,"dy":-316,"t":33362},{"dx":-506,"dy":-316,"t":33443}],[{"dx":-362,"dy":-226,"t":34448},{"dx":-362,"dy":-226,"t":34526},{"dx":-362,"dy":-226,"t":34598},{"dx":-362,"dy":-226,"t":34678},{"dx":-362,"dy":-226,"t":34760},{"dx":-362,"dy":-226,"t":34832},{"dx":-362,"dy":-226,"t":34906},{"dx":-362,"dy":-226,"t":34987},{"dx":-362,"dy":-226,"t":35062},{"dx":-362,"dy":-226,"t":35138},{"dx":-362,"dy":-226,"t":35221},{"dx":-362,"dy":-226,"t":35294},{"dx":-362,"dy":-226,"t":35367},{"dx":-362,"dy":-226,"t":35446},{"dx":-362,"dy":-226,"t":35525},{"dx":-362,"dy":-226,"t":35598},{"dx":-362,"dy":-226,"t":35677},{"dx":-362,"dy":-226,"t":35761},{"dx":-362,"dy":-226,"t":35837},{"dx":-362,"dy":-226,"t":35917},{"dx":-362,"dy":-226,"t":35997},{"dx":-362,"dy":-226,"t":36077},{"dx":-362,"dy":-226,"t":36159},{"dx":-362,"dy":-226,"t":36241},{"dx":-362,"dy":-226,"t":36316},{"dx":-362,"dy":-226,"t":36391},{"dx":-362,"dy":-226,"t":36471}],[{"dx":358,"dy":224,"t":37468},{"dx":358,"dy":224,"t":37546},{"dx":358,"dy":224,"t":37626},{"dx":358,"dy":224,"t":37700},{"dx":358,"dy":224,"t":37785},{"dx":358,"dy":224,"t":37860},{"dx":358,"dy":224,"t":37939},{"dx":358,"dy":224,"t":38020},{"dx":358,"dy":224,"t":38098},{"dx":358,"dy":224,"t":38176},{"dx":358,"dy":224,"t":38256},{"dx":358,"dy":224,"t":38335},{"dx":358,"dy":224,"t":38419},{"dx":358,"dy":224,"t":38495},{"dx":358,"dy":224,"t":38577},{"dx":358,"dy":224,"t":38655},{"dx":358,"dy":224,"t":38728},{"dx":358,"dy":224,"t":38813},{"dx":358,"dy":224,"t":38890},{"dx":358,"dy":224,"t":38963},{"dx":358,"dy":224,"t":39041},{"dx":358,"dy":224,"t":39122},{"dx":358,"dy":224,"t":39196},{"dx":358,"dy":224,"t":39275},{"dx":358,"dy":224,"t":39358},{"dx":358,"dy":224,"t":39435}]],"percent_in_roi":[0,0,0,0,0,100,0,0,0,0,0,0,0],"average_offset":[{"x":178.22222222222223,"y":111.5,"r":0.22222222222222854},{"x":-506,"y":314,"r":0},{"x":-182,"y":-113.5,"r":0},{"x":-182,"y":111.5,"r":0},{"x":502,"y":314,"r":0},{"x":-2,"y":-1,"r":0},{"x":178,"y":-113.5,"r":0},{"x":502,"y":-316,"r":0},{"x":358,"y":-226,"r":0},{"x":-362,"y":224,"r":0},{